time,hand,pos_x,pos_y,pos_z,vel_x,vel_y,vel_z,acc_x,acc_y,acc_z,state
1765388185.837672,Right,0.3265954554080963,0.9258577823638916,1.0550965612310392e-07,0.02433806909912819,-0.0377310110353473,4.38078402721177e-08,0.6713056241676092,-0.5703518233437483,2.322726933544972e-06,idle
1765388185.9315982,Left,0.5,0.5,0.0,0.0,0.0,0.0,0.0,0.0,0.0,idle
1765388185.9315982,Right,0.3257363736629486,0.930229127407074,1.258777331258898e-07,-0.009091402244560171,0.046260622300270476,2.155491977642525e-07,-0.35377398312219294,0.8888580488931487,1.8174868361559155e-06,idle
1765388186.0820153,Left,0.5,0.5,0.0,0.0,0.0,0.0,0.0,0.0,0.0,idle
1765388186.0820153,Right,0.32718193531036377,0.9297480583190918,1.216263569858711e-07,0.009610355130409974,-0.003198234254511448,-2.8263917053685574e-08,0.12433266354126563,-0.32881141851361645,-1.620913658744065e-06,idle
1765388186.1380868,Left,0.5,0.5,0.0,0.0,0.0,0.0,0.0,0.0,0.0,idle
1765388186.1380868,Right,0.32743868231773376,0.9279281497001648,1.0756384938304109e-07,0.0045789200658216435,-0.032456916162445094,-2.5079590565811153e-07,-0.0897324538000225,-0.5218100380607861,-3.9687169028599175e-06,idle
1765388186.2286296,Left,0.5,0.5,0.0,0.0,0.0,0.0,0.0,0.0,0.0,idle
1765388186.2286296,Right,0.3266761004924774,0.9319421052932739,1.1416684486675877e-07,-0.008422335977080503,0.04433213785403566,7.29267923482452e-08,-0.1435923895518497,0.8480968085904438,3.5753557660516897e-06,idle
1765388186.325427,Left,0.5,0.5,0.0,0.0,0.0,0.0,0.0,0.0,0.0,idle
1765388186.325427,Right,0.3258377015590668,0.9217263460159302,1.286546620349327e-07,-0.008661372716121754,-0.10553746570180149,1.4967145035133326e-07,-0.002469452437469341,-1.548280232101296,7.928374672805883e-07,idle
1765388186.4359531,Left,0.5,0.5,0.0,0.0,0.0,0.0,0.0,0.0,0.0,idle
1765388186.4359531,Right,0.32896021008491516,0.9286695122718811,1.4278572280090884e-07,0.02825132663186505,0.06281925449760559,1.2785272163375642e-07,0.3339727393892283,1.5232306505010005,-1.9740795792537944e-07,idle
1765388186.5392222,Left,0.5,0.5,0.0,0.0,0.0,0.0,0.0,0.0,0.0,idle
1765388186.5392222,Right,0.32691773772239685,0.9297713041305542,1.2133010329762328e-07,-0.01977815589344834,0.0106691339098956,-2.0776417596332992e-07,-0.46509054922831783,-0.5049924952590936,-3.249925650384977e-06,idle
1765388186.6294906,Left,0.5,0.5,0.0,0.0,0.0,0.0,0.0,0.0,0.0,idle
1765388186.6294906,Right,0.32699042558670044,0.9269284009933472,1.2289461892578402e-07,0.0008105790705094119,-0.03170264809103478,1.74467035979397e-08,0.2295953775770176,-0.4725091320153948,2.511440213196191e-06,idle
1765388186.7283797,Left,0.5,0.5,0.0,0.0,0.0,0.0,0.0,0.0,0.0,idle
1765388186.7283797,Right,0.32708969712257385,0.9269624352455139,1.0887777790458131e-07,0.0009978694543502436,0.00034210955174661606,-1.4089615294536457e-07,0.0018826277994390503,0.32211131360517214,-1.5916495949111528e-06,idle
1765388186.8430107,Left,0.5,0.5,0.0,0.0,0.0,0.0,0.0,0.0,0.0,idle
1765388186.8430107,Right,0.32427316904067993,0.9272846579551697,9.420207192079033e-08,-0.024570400813649005,0.0028109576390867664,-1.280256996417166e-07,-0.22304860108975372,0.021537362770822494,1.1227730991105151e-07,idle
1765388186.948086,Left,0.5,0.5,0.0,0.0,0.0,0.0,0.0,0.0,0.0,idle
1765388186.948086,Right,0.32764849066734314,0.9281487464904785,1.0661175764425934e-07,0.03212286541507268,0.00822351254089917,1.1810271980878694e-07,0.5395486304534698,0.05151117193963344,2.3423990266222955e-06,idle
1765388187.0334213,Left,0.5,0.5,0.0,0.0,0.0,0.0,0.0,0.0,0.0,idle
1765388187.0334213,Right,0.3281805217266083,0.925825834274292,1.2989872288926563e-07,0.006234598599694906,-0.027221014634473434,2.7288797971343153e-07,-0.3033712961393998,-0.41535620081965907,1.8138489245117383e-06,idle
1765388187.1286821,Left,0.5,0.5,0.0,0.0,0.0,0.0,0.0,0.0,0.0,idle
1765388187.1286821,Right,0.3257180154323578,0.9291263222694397,8.685549346409971e-08,-0.02585013752868831,0.03464684284688139,-4.5184591118297474e-07,-0.3368092270167468,0.6494572737671259,-7.607887458040261e-06,idle
1765388187.223116,Left,0.5,0.5,0.0,0.0,0.0,0.0,0.0,0.0,0.0,idle
1765388187.223116,Right,0.32669615745544434,0.9271805286407471,1.196068097897296e-07,0.010357966996899648,-0.020604846446713322,3.468177888272557e-07,0.38342320730979207,-0.585083925154466,8.457393763968525e-06,idle
1765388187.3382015,Left,0.5,0.5,0.0,0.0,0.0,0.0,0.0,0.0,0.0,idle
1765388187.3382015,Right,0.32650062441825867,0.9322963356971741,7.63939311809736e-08,-0.0016990225894129736,0.04445219016208691,-3.754846647225209e-07,-0.10476540416037441,0.5652925786329454,-6.276219111782049e-06,idle
1765388187.463368,Left,0.5,0.5,0.0,0.0,0.0,0.0,0.0,0.0,0.0,idle
1765388187.463368,Right,0.32829466462135315,0.9255790114402771,1.0563839225596894e-07,0.014391684868051119,-0.05388597964250058,2.3459734469794104e-07,0.12907870773040175,-0.7888630075777568,4.894041955192618e-06,idle
1765388187.5374467,Left,0.5,0.5,0.0,0.0,0.0,0.0,0.0,0.0,0.0,idle
1765388187.5374467,Right,0.3241451382637024,0.9221352338790894,9.781185639212708e-08,-0.05563329295073216,-0.04617121796695446,-1.0493148493917148e-07,-0.938834885981166,0.10343291242129322,-4.552111546319886e-06,idle
1765388187.6265132,Left,0.5,0.5,0.0,0.0,0.0,0.0,0.0,0.0,0.0,idle
1765388187.6265132,Right,0.32699865102767944,0.9281845092773438,9.975108383741826e-08,0.03203800070669108,0.067918634158877,2.1772802647667867e-08,0.9843351687827377,1.2809512574036155,1.4225806544458115e-06,idle
1765388187.7353837,Left,0.5,0.5,0.0,0.0,0.0,0.0,0.0,0.0,0.0,idle
1765388187.7353837,Right,0.32782092690467834,0.9284143447875977,1.3342506122171471e-07,0.007552788216434972,0.0021110906717823385,3.093030291936337e-07,-0.2249021642812462,-0.6044570355339813,2.6410295713054833e-06,idle
1765388187.8322265,Left,0.5,0.5,0.0,0.0,0.0,0.0,0.0,0.0,0.0,idle
1765388187.8322265,Right,0.327103853225708,0.9240149855613708,1.501325783692664e-07,-0.007443695087241678,-0.045668234129439426,1.7343498577414845e-07,-0.1556733322770553,-0.4959807279570936,-1.4103994010308643e-06,idle
1765388187.9698067,Left,0.5,0.5,0.0,0.0,0.0,0.0,0.0,0.0,0.0,idle
1765388187.9698067,Right,0.32685431838035583,0.9260132908821106,1.204209354455088e-07,-0.0018136629710368442,0.014524033146299114,-2.159494258344422e-07,0.040920059723514667,0.4374879434040099,-2.8301141182778725e-06,idle
1765388188.0249572,Left,0.5,0.5,0.0,0.0,0.0,0.0,0.0,0.0,0.0,idle
1765388188.0249572,Right,0.3280298709869385,0.9297327995300293,8.763816339296682e-08,0.021122408763189122,0.06683238301682295,-5.890430660497752e-07,0.41211688858442497,0.9398799692214728,-6.703771767801758e-06,idle
1765388188.118973,Left,0.5,0.5,0.0,0.0,0.0,0.0,0.0,0.0,0.0,idle
1765388188.118973,Right,0.3226131200790405,0.9255929589271545,-5.1915847620875866e-08,-0.05761530288006776,-0.04403343891299441,-1.4843670586674758e-06,-0.8374941328380444,-1.179224966800786,-9.523118911605712e-06,idle
1765388188.2337265,Left,0.5,0.5,0.0,0.0,0.0,0.0,0.0,0.0,0.0,idle
1765388188.2337265,Right,0.32730433344841003,0.9244956970214844,5.125554736196136e-08,0.040880792252826134,-0.009561904880628119,8.990698210971578e-07,0.8583277045408839,0.30039640290392294,2.0770061017812435e-05,idle
1765388188.335944,Left,0.5,0.5,0.0,0.0,0.0,0.0,0.0,0.0,0.0,idle
1765388188.3364573,Right,0.3269082307815552,0.9225055575370789,1.4151758875868836e-07,-0.003875098838199244,-0.019469667460482214,8.83039577913558e-07,-0.4378498709602341,-0.09692830287460517,-1.5682493942809156e-07,idle
1765388188.4566991,Left,0.5,0.5,0.0,0.0,0.0,0.0,0.0,0.0,0.0,idle
1765388188.4566991,Right,0.32767418026924133,0.9283866286277771,1.4066755227304384e-07,0.006342994053119151,0.04870242692760285,-7.039336744862159e-09,0.08461824635413619,0.5645479189477313,-7.370936795767429e-06,idle
1765388188.5229409,Left,0.5,0.5,0.0,0.0,0.0,0.0,0.0,0.0,0.0,idle
1765388188.5229409,Right,0.32658806443214417,0.931104838848114,9.125637490114968e-08,-0.016396245294020256,0.04103470367624299,-7.459220801173531e-07,-0.3432765948166349,-0.11575364890357567,-1.1154337585421044e-05,idle
1765388188.6337657,Left,0.5,0.5,0.0,0.0,0.0,0.0,0.0,0.0,0.0,idle
1765388188.6337657,Right,0.32831308245658875,0.932106077671051,9.904653808234798e-08,0.015565267526186824,0.009034427418018945,7.029258376998348e-08,0.28839669530314294,-0.28874646746460375,7.364908321055759e-06,idle
1765388188.7295911,Left,0.5,0.5,0.0,0.0,0.0,0.0,0.0,0.0,0.0,idle
1765388188.7295911,Right,0.32899588346481323,0.9267629384994507,1.1246662268149521e-07,0.007169707165764155,-0.05610528213177916,1.4091671739891906e-07,-0.08815703045496642,-0.6839952441626083,7.415840791916178e-07,idle
1765388188.829954,Left,0.5,0.5,0.0,0.0,0.0,0.0,0.0,0.0,0.0,idle
1765388188.829954,Right,0.32718703150749207,0.9306056499481201,1.1627898288679717e-07,-0.017917575903568933,0.03806396304483364,3.776331892379135e-08,-0.24850198314448615,0.9327930853625795,-1.021785580300549e-06,idle
1765388188.9938104,Left,0.5,0.5,0.0,0.0,0.0,0.0,0.0,0.0,0.0,idle
1765388188.9938104,Right,0.32839158177375793,0.9300400614738464,2.4523997055325708e-08,0.007351250756623365,-0.0034517303394328816,-5.599715743773631e-07,0.15421314187292104,-0.25336615743644747,-3.64791674511193e-06,idle
1765388189.0299218,Left,0.5,0.5,0.0,0.0,0.0,0.0,0.0,0.0,0.0,idle
1765388189.0299218,Right,0.32894542813301086,0.9246890544891357,1.1920758424821543e-07,0.015555421630272471,-0.15028927861146266,2.659299091969747e-06,0.23042371757856353,-4.124103980042237,9.041697525022164e-05,idle
1765388189.12785,Left,0.5,0.5,0.0,0.0,0.0,0.0,0.0,0.0,0.0,idle
1765388189.12785,Right,0.327433317899704,0.9249845743179321,1.3310661017840175e-07,-0.015361521655936792,0.003002184728216903,1.4120014739669586e-07,-0.3140850999915727,1.55728734710892,-2.5581356846091777e-05,idle
1765388189.235457,Left,0.5,0.5,0.0,0.0,0.0,0.0,0.0,0.0,0.0,idle
1765388189.235457,Right,0.32563215494155884,0.9283285140991211,8.67982308250248e-08,-0.01673836122090859,0.031075518017618802,-4.303477248776662e-07,-0.012795087683498485,0.2608878842128072,-5.31144319724517e-06,idle
1765388189.3248856,Left,0.5,0.5,0.0,0.0,0.0,0.0,0.0,0.0,0.0,idle
1765388189.3248856,Right,0.32814455032348633,0.9299627542495728,9.920253773998411e-08,0.028093849225921175,0.018274232119672294,1.3870616493235369e-07,0.5013181324158135,-0.14314522248441214,6.363215876269293e-06,idle
1765388189.4135728,Left,0.5,0.5,0.0,0.0,0.0,0.0,0.0,0.0,0.0,idle
1765388189.4135728,Right,0.327271968126297,0.926784098148346,1.3335417747839529e-07,-0.009838876179159689,-0.035841212319984085,3.8507977332545735e-07,-0.42771373241491445,-0.6101833832239509,2.778006971263662e-06,idle
1765388189.5288954,Left,0.5,0.5,0.0,0.0,0.0,0.0,0.0,0.0,0.0,idle
1765388189.5288954,Right,0.3259522020816803,0.9240405559539795,1.3662528886015934e-07,-0.011444124226273418,-0.023790154187116754,2.836487964179822e-08,-0.013919632301562762,0.10449867754449674,-3.0931918375452167e-06,idle
1765388189.6225705,Left,0.5,0.5,0.0,0.0,0.0,0.0,0.0,0.0,0.0,idle
1765388189.6225705,Right,0.3268697261810303,0.9278804659843445,1.1491666640495168e-07,0.009794745254541845,0.04099177403016528,-2.3174369689736197e-07,0.22672899404650876,0.6915594744986254,-2.776708805280975e-06,idle
1765388189.7216327,Left,0.5,0.5,0.0,0.0,0.0,0.0,0.0,0.0,0.0,idle
1765388189.7216327,Right,0.32728150486946106,0.9303873181343079,1.0279336493113078e-07,0.00415676888160444,0.025305838549977498,-1.223806955642349e-07,-0.05691349601300815,-0.158344300748967,1.1039831188758046e-06,idle
1765388189.8230166,Left,0.32378312945365906,0.9230435490608215,7.826227488294535e-08,0.0,0.0,0.0,0.0,0.0,0.0,idle
1765388189.8230166,Right,0.32728150486946106,0.9303873181343079,1.0279336493113078e-07,0.00415676888160444,0.025305838549977498,-1.223806955642349e-07,-0.05691349601300815,-0.158344300748967,1.1039831188758046e-06,idle
1765388189.9271355,Left,0.32378312945365906,0.9230435490608215,7.826227488294535e-08,0.0,0.0,0.0,0.0,0.0,0.0,idle
1765388189.9271355,Right,0.32601428031921387,0.9262821078300476,8.529206496632469e-08,-0.006166460349374261,-0.019976425300571615,-8.51633376850458e-08,-0.05023402025940394,-0.2203487018222982,1.8110394217482912e-07,idle
1765388190.0392778,Left,0.32378312945365906,0.9230435490608215,7.826227488294535e-08,0.0,0.0,0.0,0.0,0.0,0.0,idle
1765388190.0392778,Right,0.3271627426147461,0.9262997508049011,1.2022282191992417e-07,0.010241113702512336,0.0001573266377384083,3.114859365155342e-07,0.14631027252826917,0.17953749431787527,3.5370166986845995e-06,idle
1765388190.2110963,Left,0.32378312945365906,0.9230435490608215,7.826227488294535e-08,0.0,0.0,0.0,0.0,0.0,0.0,idle
1765388190.2110963,Right,0.3271627426147461,0.9262997508049011,1.2022282191992417e-07,0.010241113702512336,0.0001573266377384083,3.114859365155342e-07,0.14631027252826917,0.17953749431787527,3.5370166986845995e-06,idle
1765388190.2447007,Left,0.32378312945365906,0.9230435490608215,7.826227488294535e-08,0.0,0.0,0.0,0.0,0.0,0.0,idle
1765388190.2447007,Right,0.32648083567619324,0.9244446754455566,9.533695077834636e-08,-0.0033195277191663012,-0.009030519750326715,-1.211445937848673e-07,-0.06601329674759972,-0.04472650011356362,-2.1060484302118315e-06,idle
1765388190.312711,Left,0.32378312945365906,0.9230435490608215,7.826227488294535e-08,0.0,0.0,0.0,0.0,0.0,0.0,idle
1765388190.312711,Right,0.3271546959877014,0.928170382976532,1.3581062319190096e-07,0.009908205261239027,0.0547814945172056,5.951106588427997e-07,0.19449593821215327,0.9382694375941886,1.0531565580100802e-05,idle
1765388190.4283412,Left,0.32378312945365906,0.9230435490608215,7.826227488294535e-08,0.0,0.0,0.0,0.0,0.0,0.0,idle
1765388190.4283412,Right,0.3284304141998291,0.9260134696960449,1.1369585450893283e-07,0.011032747201992626,-0.018653554314745933,-1.9125434597566944e-07,0.009725334977918188,-0.6350856496574135,-6.800691739115451e-06,idle
1765388190.5431004,Left,0.32378312945365906,0.9230435490608215,7.826227488294535e-08,0.0,0.0,0.0,0.0,0.0,0.0,idle
1765388190.5431004,Right,0.328186571598053,0.9280166029930115,1.2681505268119508e-07,-0.00213435312040235,0.017533416112774817,1.1483227849517886e-07,-0.11525156578486918,0.31674437808368794,2.6791747516399238e-06,idle
1765388190.6205301,Left,0.32378312945365906,0.9230435490608215,7.826227488294535e-08,0.0,0.0,0.0,0.0,0.0,0.0,idle
1765388190.6205301,Right,0.32650893926620483,0.9282017350196838,1.2610824740022508e-07,-0.021681590445494826,0.0023926319876254863,-9.134696760298035e-09,-0.25262698266947065,-0.19567832247456488,-1.602139595923891e-06,idle
1765388190.7203677,Left,0.32378312945365906,0.9230435490608215,7.826227488294535e-08,0.0,0.0,0.0,0.0,0.0,0.0,idle
1765388190.720919,Right,0.32625553011894226,0.9283735156059265,1.3421137623481627e-07,-0.0025238943306619176,0.0017108934401899674,8.070521978852161e-08,0.19080605864108788,-0.006789952428525941,8.947840221795915e-07,idle
1765388190.835821,Left,0.32378312945365906,0.9230435490608215,7.826227488294535e-08,0.0,0.0,0.0,0.0,0.0,0.0,idle
1765388190.835821,Right,0.3279082775115967,0.9296762347221375,8.354467695426138e-08,0.014315296357636408,0.011283521185513148,-4.388503765838613e-07,0.1458529029887545,0.08291345895003778,-4.500138599156361e-06,idle
1765388190.920906,Left,0.32378312945365906,0.9230435490608215,7.826227488294535e-08,0.0,0.0,0.0,0.0,0.0,0.0,idle
1765388190.920906,Right,0.32814422249794006,0.9264348149299622,1.1481799333523668e-07,0.0027730453130385318,-0.038096185477746985,3.6755315193357364e-07,-0.135655288366901,-0.5803563205301008,9.477605605564982e-06,idle
1765388191.0161042,Left,0.32378312945365906,0.9230435490608215,7.826227488294535e-08,0.0,0.0,0.0,0.0,0.0,0.0,idle
1765388191.0161042,Right,0.32697102427482605,0.9272406101226807,1.3710916846321197e-07,-0.012323749655638759,0.008464399308773072,2.341555385909171e-07,-0.1585828533754991,0.489091254507852,-1.4012625991974698e-06,idle
1765388191.1152046,Left,0.32378312945365906,0.9230435490608215,7.826227488294535e-08,0.0,0.0,0.0,0.0,0.0,0.0,idle
1765388191.1152046,Right,0.3257911503314972,0.9320053458213806,9.787190435872617e-08,-0.011905850256341166,0.04807990723120265,-3.9593466195084223e-07,0.004216931561531479,0.3997514377024279,-6.358102590580944e-06,idle
1765388191.2512767,Left,0.32378312945365906,0.9230435490608215,7.826227488294535e-08,0.0,0.0,0.0,0.0,0.0,0.0,idle
1765388191.2512767,Right,0.3286343514919281,0.9291449189186096,1.0479022449771946e-07,0.020894804530354215,-0.021021397233007666,5.084302475480462e-08,0.2410533872080143,-0.5078283836073492,3.2833879509332667e-06,idle
1765388191.3512506,Left,0.32378312945365906,0.9230435490608215,7.826227488294535e-08,0.0,0.0,0.0,0.0,0.0,0.0,idle
1765388191.3512506,Right,0.3267609477043152,0.9276720881462097,1.004850815888858e-07,-0.01873892554868466,-0.014732150309667295,-4.3062661119029696e-08,-0.3964407043897947,0.0629088777513032,-9.393018567717018e-07,idle
1765388191.431122,Left,0.32378312945365906,0.9230435490608215,7.826227488294535e-08,0.0,0.0,0.0,0.0,0.0,0.0,idle
1765388191.431122,Right,0.327770471572876,0.9270038604736328,1.202323858251475e-07,0.012639363591588185,-0.008366293040402381,2.4723868941469345e-07,0.3928600577728779,0.07970131970539814,3.6346087841942573e-06,idle
1765388191.5173473,Left,0.32378312945365906,0.9230435490608215,7.826227488294535e-08,0.0,0.0,0.0,0.0,0.0,0.0,idle
1765388191.5173473,Right,0.32767295837402344,0.9311021566390991,1.324579130823622e-07,-0.0011442287786127135,0.04808978139355315,1.4345545306716168e-07,-0.16173793135943082,0.6624607320340343,-1.2178019710540835e-06,idle
1765388191.612286,Left,0.32378312945365906,0.9230435490608215,7.826227488294535e-08,0.0,0.0,0.0,0.0,0.0,0.0,idle
1765388191.612286,Right,0.3269352614879608,0.9290267825126648,9.093798780668294e-08,-0.00768896724990122,-0.021631491186871136,-4.327595136899406e-07,-0.06821538861780435,-0.7267003448443604,-6.005851579427951e-06,idle
1765388191.7611067,Left,0.32378312945365906,0.9230435490608215,7.826227488294535e-08,0.0,0.0,0.0,0.0,0.0,0.0,idle
1765388191.7611067,Right,0.3261328637599945,0.9289806485176086,1.2087100742519397e-07,-0.005391710015555937,-0.0003099972925301066,2.0113486871654597e-07,0.015436415641555592,0.143269737899308,4.259452103744249e-06,idle
1765388191.8356624,Left,0.32378312945365906,0.9230435490608215,7.826227488294535e-08,0.0,0.0,0.0,0.0,0.0,0.0,idle
1765388191.8356624,Right,0.32893866300582886,0.9292321801185608,1.2724930797958223e-07,0.03814757727814947,0.003419817436854935,8.671921687306448e-08,0.591959075168358,0.050710468980857445,-1.555592377825715e-06,idle
1765388191.913788,Left,0.32378312945365906,0.9230435490608215,7.826227488294535e-08,0.0,0.0,0.0,0.0,0.0,0.0,idle
1765388191.913788,Right,0.3283799886703491,0.9279234409332275,1.3340400073502678e-07,-0.007060193554607468,-0.01653906645455203,7.777934185085728e-08,-0.5713088860212711,-0.2522284888677893,-1.1297681672916743e-07,idle
1765388192.0088499,Left,0.32378312945365906,0.9230435490608215,7.826227488294535e-08,0.0,0.0,0.0,0.0,0.0,0.0,idle
1765388192.0088499,Right,0.32846298813819885,0.9294766187667847,1.1295127677612982e-07,0.0008731108201786727,0.016338615261914435,-2.151519166721778e-07,0.08345419638035656,0.34585594814907317,-3.081483026470338e-06,idle
1765388192.1271894,Left,0.32378312945365906,0.9230435490608215,7.826227488294535e-08,0.0,0.0,0.0,0.0,0.0,0.0,idle
1765388192.1271894,Right,0.3272310495376587,0.9261606931686401,1.0699703523187054e-07,-0.010410202839920057,-0.028020437109148345,-5.0314895731361725e-08,-0.09534694655769846,-0.3748455749068365,1.3929158667239148e-06,idle
1765388192.2191815,Left,0.32378312945365906,0.9230435490608215,7.826227488294535e-08,0.0,0.0,0.0,0.0,0.0,0.0,idle
1765388192.2191815,Right,0.327419251203537,0.9286531805992126,9.415089152753353e-08,0.0020458450717001477,0.02709456955290105,-1.396439275137181e-07,0.13540339355618805,0.5991273468811419,-9.710507002093194e-07,idle
1765388192.4052224,Left,0.32378312945365906,0.9230435490608215,7.826227488294535e-08,0.0,0.0,0.0,0.0,0.0,0.0,idle
1765388192.4052224,Right,0.327419251203537,0.9286531805992126,9.415089152753353e-08,0.0020458450717001477,0.02709456955290105,-1.396439275137181e-07,0.13540339355618805,0.5991273468811419,-9.710507002093194e-07,idle
1765388192.5194507,Left,0.32378312945365906,0.9230435490608215,7.826227488294535e-08,0.0,0.0,0.0,0.0,0.0,0.0,idle
1765388192.5194507,Right,0.327419251203537,0.9286531805992126,9.415089152753353e-08,0.0020458450717001477,0.02709456955290105,-1.396439275137181e-07,0.13540339355618805,0.5991273468811419,-9.710507002093194e-07,idle
1765388192.566433,Left,0.32378312945365906,0.9230435490608215,7.826227488294535e-08,0.0,0.0,0.0,0.0,0.0,0.0,idle
1765388192.566433,Right,0.32728955149650574,0.9289349913597107,1.2260244375283946e-07,-0.00037350375357540587,0.0008115467586877385,8.193358176698142e-08,-0.006967138848131283,-0.07568874204612777,6.380895787551032e-07,idle
1765388192.622616,Left,0.32378312945365906,0.9230435490608215,7.826227488294535e-08,0.0,0.0,0.0,0.0,0.0,0.0,idle
1765388192.622616,Right,0.3261193633079529,0.9267216324806213,1.0302559871888661e-07,-0.021018367049795303,-0.03975530584628034,-3.51630035771804e-07,-0.37081327490530974,-0.728642628978006,-7.787464736024075e-06,idle
1765388192.7161446,Left,0.32378312945365906,0.9230435490608215,7.826227488294535e-08,0.0,0.0,0.0,0.0,0.0,0.0,idle
1765388192.7161446,Right,0.325687050819397,0.9286055564880371,9.987617488604883e-08,-0.004597256731403073,0.02003384716799351,-3.3491306170495527e-08,0.17462382407807367,0.6358041773854796,3.383120901885519e-06,idle
1765388192.8432484,Left,0.32378312945365906,0.9230435490608215,7.826227488294535e-08,0.0,0.0,0.0,0.0,0.0,0.0,idle
1765388192.8432484,Right,0.326645165681839,0.9314154982566833,9.223421670867538e-08,0.0075380501658188145,0.022107455844175332,-6.012375589217685e-08,0.09547555909498445,0.016314292615705755,-2.0953306321644772e-07,idle
1765388192.9288785,Left,0.32378312945365906,0.9230435490608215,7.826227488294535e-08,0.0,0.0,0.0,0.0,0.0,0.0,idle
1765388192.9288785,Right,0.329077810049057,0.9284769892692566,8.987137789517874e-08,0.028579731660177587,-0.034522842497409036,-2.7759626584141057e-08,0.24720654563881958,-0.6653166209778456,3.8022743624327546e-07,idle
1765388193.0184104,Left,0.32378312945365906,0.9230435490608215,7.826227488294535e-08,0.0,0.0,0.0,0.0,0.0,0.0,idle
1765388193.0184104,Right,0.3266192674636841,0.92568039894104,1.2169417118457204e-07,-0.027303712470841176,-0.031057952249697488,3.5341279144888696e-07,-0.6206219487559569,0.03847985698087376,4.2331673104659365e-06,idle
1765388193.1130662,Left,0.32378312945365906,0.9230435490608215,7.826227488294535e-08,0.0,0.0,0.0,0.0,0.0,0.0,idle
1765388193.1130662,Right,0.3282659649848938,0.928104043006897,8.844651944173165e-08,0.01739669785776356,0.025604826014130447,-3.512480855776291e-07,0.4722418796340394,0.5986194917650128,-7.444459114027995e-06,idle
1765388193.211826,Left,0.32378312945365906,0.9230435490608215,7.826227488294535e-08,0.0,0.0,0.0,0.0,0.0,0.0,idle
1765388193.211826,Right,0.32916662096977234,0.9284933805465698,1.3593943037903955e-07,0.009167123693227594,0.003962784286698828,4.833958763649991e-07,-0.08376286348562395,-0.22027863781542925,8.495235214548037e-06,idle
1765388193.3479962,Left,0.32378312945365906,0.9230435490608215,7.826227488294535e-08,0.0,0.0,0.0,0.0,0.0,0.0,idle
1765388193.3479962,Right,0.32885006070137024,0.9280256628990173,6.386205342323592e-08,-0.0023160423106174254,-0.003421951423727158,-5.273379868882351e-07,-0.08401401243117056,-0.054028765026029955,-7.3948079583216914e-06,idle
1765388193.4181721,Left,0.32378312945365906,0.9230435490608215,7.826227488294535e-08,0.0,0.0,0.0,0.0,0.0,0.0,idle
1765388193.4181721,Right,0.32721754908561707,0.9271083474159241,1.2814197702937236e-07,-0.02326314215921098,-0.013071662266977872,9.159830695249779e-07,-0.29849426913645605,-0.13750750253513752,2.056719388255775e-05,idle
1765388193.5135732,Left,0.32378312945365906,0.9230435490608215,7.826227488294535e-08,0.0,0.0,0.0,0.0,0.0,0.0,idle
1765388193.5135732,Right,0.3278989791870117,0.9277092218399048,1.2113910941025097e-07,0.00714279466488063,0.006298404812303663,-7.340451407466697e-08,0.3187170083671374,0.20303830357523686,-1.0370825032781756e-05,idle
1765388193.604705,Left,0.32378312945365906,0.9230435490608215,7.826227488294535e-08,0.0,0.0,0.0,0.0,0.0,0.0,idle
1765388193.604705,Right,0.3266836702823639,0.931682825088501,9.85268044928489e-08,-0.013335709707378969,0.04360275746595681,-2.481271494349789e-07,-0.22471273641237963,0.4093445015569689,-1.9172494627187406e-06,idle
1765388193.7949495,Left,0.32378312945365906,0.9230435490608215,7.826227488294535e-08,0.0,0.0,0.0,0.0,0.0,0.0,idle
1765388193.7949495,Right,0.3266836702823639,0.931682825088501,9.85268044928489e-08,-0.013335709707378969,0.04360275746595681,-2.481271494349789e-07,-0.22471273641237963,0.4093445015569689,-1.9172494627187406e-06,idle
1765388193.8349886,Left,0.32378312945365906,0.9230435490608215,7.826227488294535e-08,0.0,0.0,0.0,0.0,0.0,0.0,idle
1765388193.8349886,Right,0.32703152298927307,0.9280567765235901,1.3365551865263114e-07,0.0015105411754474422,-0.015746019946597866,1.5254551172065168e-07,0.06446945162162378,-0.2577204955243749,1.7399104291279821e-06,idle
1765388193.921935,Left,0.32378312945365906,0.9230435490608215,7.826227488294535e-08,0.0,0.0,0.0,0.0,0.0,0.0,idle
1765388193.921935,Right,0.32819056510925293,0.9261413216590881,1.1838994851132156e-07,0.013330522649994516,-0.02203027311615663,-1.7557431695178058e-07,0.13594547432987467,-0.07227725185393495,-3.773813507404018e-06,idle
1765388194.014002,Left,0.32378312945365906,0.9230435490608215,7.826227488294535e-08,0.0,0.0,0.0,0.0,0.0,0.0,idle
1765388194.014517,Right,0.326614111661911,0.9261786341667175,1.1155577794852434e-07,-0.01712289302019645,0.0004052755744425195,-7.423040092040972e-08,-0.33077448591931424,0.2436871832316254,1.1007626234563737e-06,idle
1765388194.1028304,Left,0.32378312945365906,0.9230435490608215,7.826227488294535e-08,0.0,0.0,0.0,0.0,0.0,0.0,idle
1765388194.1028304,Right,0.32642504572868347,0.9256295561790466,8.572988008381799e-08,-0.002128441942921253,-0.006181338959076476,-2.907394435923411e-07,0.16880258669098314,-0.07414993487020492,-2.4373874212974434e-06,idle
1765388194.19807,Left,0.32378312945365906,0.9230435490608215,7.826227488294535e-08,0.0,0.0,0.0,0.0,0.0,0.0,idle
1765388194.19807,Right,0.32799044251441956,0.9301201105117798,1.0235064706876074e-07,0.016436399775699436,0.04715005607514069,1.7451522402022036e-07,0.19492767778767958,0.5599705693569312,4.885094810511177e-06,idle
1765388194.3086836,Left,0.3285003900527954,0.9264531135559082,9.137001910630715e-08,0.001051629692832311,0.0007601020099072772,2.922139394601641e-09,0.0,0.0,0.0,idle
1765388194.3086836,Right,0.32799044251441956,0.9301201105117798,1.0235064706876074e-07,0.016436399775699436,0.04715005607514069,1.7451522402022036e-07,0.19492767778767958,0.5599705693569312,4.885094810511177e-06,idle
1765388194.4049757,Left,0.3285003900527954,0.9264531135559082,9.137001910630715e-08,0.001051629692832311,0.0007601020099072772,2.922139394601641e-09,0.0,0.0,0.0,idle
1765388194.4049757,Right,0.3254542648792267,0.9271100163459778,1.1615878037218863e-07,-0.012257655633336214,-0.014548151989168322,6.67363912621794e-08,-0.13868186717176834,-0.29819495967155074,-5.209082353612563e-07,idle
1765388194.5020533,Left,0.3285003900527954,0.9264531135559082,9.137001910630715e-08,0.001051629692832311,0.0007601020099072772,2.922139394601641e-09,0.0,0.0,0.0,idle
1765388194.5020533,Right,0.3263198137283325,0.9238612055778503,1.33427192849922e-07,0.00891605042574041,-0.0334661188241853,1.778825499947368e-07,0.21811112234457916,-0.19487466990193122,1.1449206557325767e-06,idle
1765388194.6479397,Left,0.32284513115882874,0.9014788269996643,-7.677338942357892e-08,-0.016669589013755294,-0.07361486018765334,-4.956239083157479e-07,-0.052235527709764355,-0.21922958364816955,-1.4695273683455418e-06,idle
1765388194.6479397,Right,0.3263198137283325,0.9238612055778503,1.33427192849922e-07,0.00891605042574041,-0.0334661188241853,1.778825499947368e-07,0.21811112234457916,-0.19487466990193122,1.1449206557325767e-06,idle
1765388194.7418213,Left,0.32284513115882874,0.9014788269996643,-7.677338942357892e-08,-0.016669589013755294,-0.07361486018765334,-4.956239083157479e-07,-0.052235527709764355,-0.21922958364816955,-1.4695273683455418e-06,idle
1765388194.7418213,Right,0.3263198137283325,0.9238612055778503,1.33427192849922e-07,0.00891605042574041,-0.0334661188241853,1.778825499947368e-07,0.21811112234457916,-0.19487466990193122,1.1449206557325767e-06,idle
1765388194.8277266,Left,0.3362559378147125,0.8558251261711121,1.9790974192801514e-07,0.07459278247297041,-0.25393226987551737,1.5278259982157307e-06,0.5076140756447378,-1.002950654801602,1.1254711412652762e-05,idle
1765388194.8277266,Right,0.7653697729110718,0.8502016067504883,4.4782126451536897e-07,1.3481298678670808,-0.22617632266523569,9.653663083843317e-07,4.112138286298107,-0.5917285179219011,2.418017250522896e-06,idle
1765388194.9049895,Left,0.31939584016799927,0.8688508868217468,5.30116288643967e-08,-0.218217312012442,0.16859015503110497,-1.8753910808210325e-06,-3.789790135715609,5.46863427247564,-4.4047246863188176e-05,idle
1765388194.9049895,Right,0.7597253918647766,0.8740795850753784,4.791339733856148e-07,-0.07305424237187716,0.3090485212797472,4.052749458912672e-07,-18.394138806876736,6.927322084087765,-7.2491651095774625e-06,idle
1765388194.9936078,Left,0.31939584016799927,0.8688508868217468,5.30116288643967e-08,-0.218217312012442,0.16859015503110497,-1.8753910808210325e-06,-3.789790135715609,5.46863427247564,-4.4047246863188176e-05,idle
1765388194.9936078,Right,0.7627882361412048,0.8725377321243286,4.7195189267768e-07,0.034562218180644186,-0.017398814071865953,-8.104513909799987e-08,1.2143822061311045,-3.683747200517128,-5.487807856372542e-06,idle
1765388195.105583,Left,0.3047957718372345,0.9161244630813599,-4.8351520121059366e-08,-0.0727843644143341,0.23566856837225886,-5.05316290773512e-07,0.7250133640488908,0.3343997829565046,6.83010658132225e-06,idle
1765388195.105583,Right,0.7605897784233093,0.8724121451377869,5.0141068186349e-07,-0.01963343539341393,-0.0011215607953021134,2.630831739631811e-07,-0.4839969649580892,0.14536481551874944,3.0732549216360914e-06,idle
1765388195.2309692,Left,0.3047957718372345,0.9161244630813599,-4.8351520121059366e-08,-0.0727843644143341,0.23566856837225886,-5.05316290773512e-07,0.7250133640488908,0.3343997829565046,6.83010658132225e-06,idle
1765388195.2309692,Right,0.7590033411979675,0.8779304027557373,4.986885073776648e-07,-0.012652403081907862,0.044010074005339336,-2.1710313086309254e-08,0.05567622426028726,0.3599408953103388,-2.271329703875251e-06,idle
1765388195.3549883,Left,0.3047957718372345,0.9161244630813599,-4.8351520121059366e-08,-0.0727843644143341,0.23566856837225886,-5.05316290773512e-07,0.7250133640488908,0.3343997829565046,6.83010658132225e-06,idle
1765388195.3549883,Right,0.761442244052887,0.8833168745040894,5.168423058421467e-07,0.019907018199367927,0.04396591315990223,1.481764620887443e-07,0.2657592493689773,-0.00036045337026961564,1.3866641381062456e-06,idle
1765388195.4126651,Left,0.3047957718372345,0.9161244630813599,-4.8351520121059366e-08,-0.0727843644143341,0.23566856837225886,-5.05316290773512e-07,0.7250133640488908,0.3343997829565046,6.83010658132225e-06,idle
1765388195.4126651,Right,0.7619990706443787,0.8825088143348694,4.5071612930769334e-07,0.009408840402217351,-0.01365399800180482,-1.1173508071063397e-06,-0.17739037775275496,-0.9736182797199003,-2.138393582930747e-05,idle
1765388195.5709734,Left,0.3047957718372345,0.9161244630813599,-4.8351520121059366e-08,-0.0727843644143341,0.23566856837225886,-5.05316290773512e-07,0.7250133640488908,0.3343997829565046,6.83010658132225e-06,idle
1765388195.5709734,Right,0.7652546167373657,0.8844467997550964,4.428438558079506e-07,0.0205645993255953,0.01224184592307449,-4.972749446012976e-08,0.07046858065575966,0.16357859458984808,6.743951714438629e-06,idle
1765388195.6101773,Left,0.3047957718372345,0.9161244630813599,-4.8351520121059366e-08,-0.0727843644143341,0.23566856837225886,-5.05316290773512e-07,0.7250133640488908,0.3343997829565046,6.83010658132225e-06,idle
1765388195.6101773,Right,0.7699279189109802,0.8922830820083618,4.3130685867254215e-07,0.12422365168895368,0.20830058939096266,-3.0667135580855714e-07,2.7554190884330025,5.211546815148852,-6.8299680932198135e-06,idle
1765388195.7249753,Left,0.3047957718372345,0.9161244630813599,-4.8351520121059366e-08,-0.0727843644143341,0.23566856837225886,-5.05316290773512e-07,0.7250133640488908,0.3343997829565046,6.83010658132225e-06,idle
1765388195.7249753,Right,0.7722800970077515,0.8957784175872803,4.6419626187343965e-07,0.020210861206085947,0.030033330533595824,2.8259899373979487e-07,-0.8937197718967553,-1.5317440593895804,5.063248086499702e-06,idle
1765388195.8147354,Left,0.3047957718372345,0.9161244630813599,-4.8351520121059366e-08,-0.0727843644143341,0.23566856837225886,-5.05316290773512e-07,0.7250133640488908,0.3343997829565046,6.83010658132225e-06,idle
1765388195.8147354,Right,0.7758270502090454,0.902298629283905,4.68072073545045e-07,0.039515938387328975,0.07264045197500006,4.317968874248883e-08,0.21507423333872455,0.4746779250218937,-2.667325439072412e-06,idle
1765388195.9103742,Left,0.3047957718372345,0.9161244630813599,-4.8351520121059366e-08,-0.0727843644143341,0.23566856837225886,-5.05316290773512e-07,0.7250133640488908,0.3343997829565046,6.83010658132225e-06,idle
1765388195.9103742,Right,0.7776837944984436,0.9044204354286194,4.25980601903575e-07,0.019414141766673814,0.022185631877309056,-4.4010895968894523e-07,-0.2101846396332445,-0.5275562368936021,-5.053272218714153e-06,idle
1765388196.0228267,Left,0.3047957718372345,0.9161244630813599,-4.8351520121059366e-08,-0.0727843644143341,0.23566856837225886,-5.05316290773512e-07,0.7250133640488908,0.3343997829565046,6.83010658132225e-06,idle
1765388196.0228267,Right,0.7743759751319885,0.9019172787666321,4.5471009002540086e-07,-0.029415256752745624,-0.02225967858202943,2.5548108159972576e-07,-0.43422240920916555,-0.39523627918595017,6.185633915399308e-06,idle
1765388196.1108637,Left,0.3047957718372345,0.9161244630813599,-4.8351520121059366e-08,-0.0727843644143341,0.23566856837225886,-5.05316290773512e-07,0.7250133640488908,0.3343997829565046,6.83010658132225e-06,idle
1765388196.1108637,Right,0.7718989253044128,0.8969742059707642,4.3729855292440334e-07,-0.028136458914459966,-0.05614766529272533,-1.9777518918918225e-07,0.014525683914901092,-0.38492885171892155,-5.148473922002199e-06,idle
1765388196.2016764,Left,0.3047957718372345,0.9161244630813599,-4.8351520121059366e-08,-0.0727843644143341,0.23566856837225886,-5.05316290773512e-07,0.7250133640488908,0.3343997829565046,6.83010658132225e-06,idle
1765388196.2016764,Right,0.7667547464370728,0.8782888054847717,3.9825619069233653e-07,-0.05664603986389986,-0.20575760837603965,-4.2992191065121907e-07,-0.31393831758422125,-1.6474564781833299,-2.5563248824222542e-06,idle
1765388196.3049788,Left,0.3047957718372345,0.9161244630813599,-4.8351520121059366e-08,-0.0727843644143341,0.23566856837225886,-5.05316290773512e-07,0.7250133640488908,0.3343997829565046,6.83010658132225e-06,idle
1765388196.3049788,Right,0.7564229965209961,0.8640340566635132,3.3859635095723206e-07,-0.10001454018399103,-0.13799038501484023,-5.775257325259476e-07,-0.4198205195843808,0.6560077178668215,-1.4288507265579029e-06,idle
1765388196.4038162,Left,0.3047957718372345,0.9161244630813599,-4.8351520121059366e-08,-0.0727843644143341,0.23566856837225886,-5.05316290773512e-07,0.7250133640488908,0.3343997829565046,6.83010658132225e-06,idle
1765388196.4038162,Right,0.7506952285766602,0.8589504957199097,3.4319427300033567e-07,-0.057951436965992364,-0.05143358886900139,4.6520074144930784e-08,0.4255789163285475,0.8757496400991824,6.313864594486826e-06,idle
1765388196.5719824,Left,0.3047957718372345,0.9161244630813599,-4.8351520121059366e-08,-0.0727843644143341,0.23566856837225886,-5.05316290773512e-07,0.7250133640488908,0.3343997829565046,6.83010658132225e-06,idle
1765388196.5719824,Right,0.7506952285766602,0.8589504957199097,3.4319427300033567e-07,-0.057951436965992364,-0.05143358886900139,4.6520074144930784e-08,0.4255789163285475,0.8757496400991824,6.313864594486826e-06,idle
1765388196.6462579,Left,0.3047957718372345,0.9161244630813599,-4.8351520121059366e-08,-0.0727843644143341,0.23566856837225886,-5.05316290773512e-07,0.7250133640488908,0.3343997829565046,6.83010658132225e-06,idle
1765388196.647264,Right,0.7506952285766602,0.8589504957199097,3.4319427300033567e-07,-0.057951436965992364,-0.05143358886900139,4.6520074144930784e-08,0.4255789163285475,0.8757496400991824,6.313864594486826e-06,idle
1765388196.7331233,Left,0.3047957718372345,0.9161244630813599,-4.8351520121059366e-08,-0.0727843644143341,0.23566856837225886,-5.05316290773512e-07,0.7250133640488908,0.3343997829565046,6.83010658132225e-06,idle
1765388196.7331233,Right,0.7506952285766602,0.8589504957199097,3.4319427300033567e-07,-0.057951436965992364,-0.05143358886900139,4.6520074144930784e-08,0.4255789163285475,0.8757496400991824,6.313864594486826e-06,idle
1765388196.8079727,Left,0.3047957718372345,0.9161244630813599,-4.8351520121059366e-08,-0.0727843644143341,0.23566856837225886,-5.05316290773512e-07,0.7250133640488908,0.3343997829565046,6.83010658132225e-06,idle
1765388196.8079727,Right,0.7506952285766602,0.8589504957199097,3.4319427300033567e-07,-0.057951436965992364,-0.05143358886900139,4.6520074144930784e-08,0.4255789163285475,0.8757496400991824,6.313864594486826e-06,idle
1765388196.9082692,Left,0.3047957718372345,0.9161244630813599,-4.8351520121059366e-08,-0.0727843644143341,0.23566856837225886,-5.05316290773512e-07,0.7250133640488908,0.3343997829565046,6.83010658132225e-06,idle
1765388196.9082692,Right,0.7506952285766602,0.8589504957199097,3.4319427300033567e-07,-0.057951436965992364,-0.05143358886900139,4.6520074144930784e-08,0.4255789163285475,0.8757496400991824,6.313864594486826e-06,idle
1765388197.0057485,Left,0.6598519086837769,0.515399694442749,-1.7144255082257587e-07,0.18685536919538984,-0.2108893969689852,-6.477910842677191e-08,0.13664058509825497,-0.23501003030696618,2.3184147324645383e-07,idle
1765388197.0057485,Right,0.7506952285766602,0.8589504957199097,3.4319427300033567e-07,-0.057951436965992364,-0.05143358886900139,4.6520074144930784e-08,0.4255789163285475,0.8757496400991824,6.313864594486826e-06,idle
1765388197.092288,Left,0.36621540784835815,0.5346270203590393,-2.2230142349144444e-07,-3.393091910417579,0.2221797489069435,-5.876954293309037e-07,-41.36777995793019,5.004294123320443,-6.042515604283195e-06,idle
1765388197.092288,Right,0.6754229664802551,0.5282308459281921,-3.7283570009094547e-07,-0.10933238331382504,-0.48036775451403557,-1.0400280435566004e-06,-0.0746304304490487,-0.6230235854295968,-1.578202806517389e-06,idle
1765388197.1915593,Left,0.37905022501945496,0.5391193628311157,-1.5492339855427417e-07,0.13061283536896046,0.045716084608329814,6.856688927694549e-07,35.85879422471835,-1.795773108910497,1.2958324403851975e-05,idle
1765388197.1915593,Right,0.6583731770515442,0.532875120639801,-2.0650830379054241e-07,-0.17350627671912228,0.04726221497581025,1.6926219158972183e-06,-0.6530622183856963,5.369398365556749,2.780866719931917e-05,idle
1765388197.2936747,Left,0.37957704067230225,0.5308789610862732,-1.5884792503584322e-07,0.00510873510759065,-0.0799103623193432,-3.8057650923429896e-08,-1.2170617932221808,-1.2182482361573173,-7.018256162428105e-06,idle
1765388197.2936747,Right,0.6509256958961487,0.5268412828445435,-2.598560797650862e-07,-0.07222110473759534,-0.0585124584122316,-5.173340134448032e-07,0.9822014801264369,-1.0257379113753557,-2.1430797246509305e-05,idle
1765388197.4005363,Left,0.3811984360218048,0.5086362957954407,-1.3570057433298643e-07,0.015172854242431004,-0.20814461970951117,2.1661057460207274e-07,0.0941790123909271,-1.2000032545204504,2.3831595836650627e-06,idle
1765388197.4005363,Right,0.6500816345214844,0.52295982837677,-2.5707942086228286e-07,-0.00789864126190848,-0.0363222596550724,2.5983694122539824e-08,0.6019231294391632,0.20765364317607338,5.084312340466605e-06,idle
1765388197.4945707,Left,0.3811984360218048,0.5086362957954407,-1.3570057433298643e-07,0.015172854242431004,-0.20814461970951117,2.1661057460207274e-07,0.0941790123909271,-1.2000032545204504,2.3831595836650627e-06,idle
1765388197.4945707,Right,0.6380693912506104,0.5177950263023376,-1.868198893362205e-07,-0.1277430281763347,-0.05492458336396989,7.471681278010629e-07,-1.274473430912392,-0.19782459513227021,7.669365442765161e-06,idle
1765388197.603367,Left,0.3811984360218048,0.5086362957954407,-1.3570057433298643e-07,0.015172854242431004,-0.20814461970951117,2.1661057460207274e-07,0.0941790123909271,-1.2000032545204504,2.3831595836650627e-06,idle
1765388197.603367,Right,0.6443932056427002,0.5326370596885681,-2.740095510489482e-07,0.058125239686626855,0.13642031446885444,-8.014023927690584e-07,1.708405236116126,1.7587435936225417,-1.4233661378862308e-05,idle
1765388197.7208548,Left,0.3916727602481842,0.5389509797096252,-1.9909320769784244e-07,0.032699720806572026,0.09463920334228251,-1.9790502636948732e-07,0.05471700425484751,0.9452587359864999,-1.294073405480571e-06,idle
1765388197.7208548,Right,0.6607232689857483,0.5382055640220642,-3.036982150206313e-07,0.13899384916970894,0.047396500256707365,-2.5269599973027753e-07,0.6883157200881715,-0.7577290023423591,4.6703317697144786e-06,idle
1765388197.7935328,Left,0.3916727602481842,0.5389509797096252,-1.9909320769784244e-07,0.032699720806572026,0.09463920334228251,-1.9790502636948732e-07,0.05471700425484751,0.9452587359864999,-1.294073405480571e-06,idle
1765388197.7935328,Right,0.6493347883224487,0.5521663427352905,-2.817713777858444e-07,-0.15669757966631018,0.19209061325180263,3.016980426107843e-07,-4.068508574281839,1.9908904417216586,7.628076754454177e-06,idle
1765388197.9031878,Left,0.3916727602481842,0.5389509797096252,-1.9909320769784244e-07,0.032699720806572026,0.09463920334228251,-1.9790502636948732e-07,0.05471700425484751,0.9452587359864999,-1.294073405480571e-06,idle
1765388197.9031878,Right,0.6456982493400574,0.5699324607849121,-2.234096996289736e-07,-0.03316348716967512,0.16201845514278385,5.32230446071924e-07,1.1265715317138114,-0.2742436240727637,2.102344685811787e-06,idle
1765388197.9947584,Left,0.3916727602481842,0.5389509797096252,-1.9909320769784244e-07,0.032699720806572026,0.09463920334228251,-1.9790502636948732e-07,0.05471700425484751,0.9452587359864999,-1.294073405480571e-06,idle
1765388197.9947584,Right,0.6528457999229431,0.58415287733078,-2.6880900350079173e-07,0.07805506736965437,0.15529453882705202,-4.957846301550015e-07,1.2145659784639142,-0.07342875505757797,-1.1226473335361318e-05,idle
1765388198.104276,Left,0.37700673937797546,0.570152997970581,-2.090747841521079e-07,-0.03836966617119525,0.08163161876936377,-2.611408778166951e-08,-0.18593377695702196,-0.03403081736848625,4.494444009854363e-07,idle
1765388198.104276,Right,0.668930172920227,0.5985836982727051,-2.782693400149583e-07,0.14848124361728351,0.1332166470049653,-8.733212857589456e-08,0.6501320402246186,-0.20380979940870872,3.770587476633216e-06,idle
1765388198.18182,Left,0.3735884726047516,0.5783678889274597,-1.0656791893381978e-08,-0.04341450637564687,0.10433516734748259,2.5200546831033794e-06,-0.06407318730530814,0.28835179343388034,3.233821924109436e-05,idle
1765388198.18182,Right,0.668930172920227,0.5985836982727051,-2.782693400149583e-07,0.14848124361728351,0.1332166470049653,-8.733212857589456e-08,0.6501320402246186,-0.20380979940870872,3.770587476633216e-06,idle
1765388198.300599,Left,0.3766174912452698,0.5734744668006897,-8.05716524610034e-08,0.025501258540815263,-0.04119764108904929,-5.886120710287051e-07,0.5802007010336832,-1.2252383410476588,-2.6171814710522e-05,idle
1765388198.300599,Right,0.668930172920227,0.5985836982727051,-2.782693400149583e-07,0.14848124361728351,0.1332166470049653,-8.733212857589456e-08,0.6501320402246186,-0.20380979940870872,3.770587476633216e-06,idle
1765388198.3930666,Left,0.3698674738407135,0.5825619101524353,-1.660714019635634e-07,-0.07299877268027548,0.09827711126065847,-9.246460274228231e-07,-1.0652389404588676,1.5083643687409622,-3.6340745401797006e-06,idle
1765388198.3930666,Right,0.668930172920227,0.5985836982727051,-2.782693400149583e-07,0.14848124361728351,0.1332166470049653,-8.733212857589456e-08,0.6501320402246186,-0.20380979940870872,3.770587476633216e-06,idle
1765388198.4871209,Left,0.3628426194190979,0.5907551646232605,-1.1281128564633036e-07,-0.0746894106851343,0.08711203269014327,5.662703398543844e-07,-0.01797514207216205,-0.11870895660400257,1.5851668685134958e-05,idle
1765388198.4871209,Right,0.668930172920227,0.5985836982727051,-2.782693400149583e-07,0.14848124361728351,0.1332166470049653,-8.733212857589456e-08,0.6501320402246186,-0.20380979940870872,3.770587476633216e-06,idle
1765388198.5985498,Left,0.3628426194190979,0.5907551646232605,-1.1281128564633036e-07,-0.0746894106851343,0.08711203269014327,5.662703398543844e-07,-0.01797514207216205,-0.11870895660400257,1.5851668685134958e-05,idle
1765388198.5985498,Right,0.6507766246795654,0.555928111076355,-2.9022950798207603e-07,-0.03663937774916235,-0.08609193925509098,-2.4139254005953328e-08,-0.37362967754218296,-0.44263138142982145,1.275424270632355e-07,idle
1765388198.703549,Left,0.3628426194190979,0.5907551646232605,-1.1281128564633036e-07,-0.0746894106851343,0.08711203269014327,5.662703398543844e-07,-0.01797514207216205,-0.11870895660400257,1.5851668685134958e-05,idle
1765388198.703549,Right,0.6413328051567078,0.5514754056930542,-1.989722022699425e-07,-0.08994193888255624,-0.042407095400069934,8.691249333049298e-07,-0.507647957919969,0.41604983519564165,8.507353698006772e-06,idle
1765388198.7882478,Left,0.3628426194190979,0.5907551646232605,-1.1281128564633036e-07,-0.0746894106851343,0.08711203269014327,5.662703398543844e-07,-0.01797514207216205,-0.11870895660400257,1.5851668685134958e-05,idle
1765388198.7882478,Right,0.6536602973937988,0.5607271790504456,-2.1433132246784226e-07,0.14554486520873855,0.10923130839148437,-1.8133786141857137e-07,2.7802812202777574,1.7903228504095148,-1.2402316945275507e-05,idle
1765388198.9033134,Left,0.3665686547756195,0.5380603075027466,-1.70832990420422e-07,0.008952672318086568,-0.12661173164195555,-1.394107303007792e-07,0.20096968747743876,-0.5135213828028374,-1.6955639916615493e-06,idle
1765388198.9033134,Right,0.6759380102157593,0.5703409910202026,-2.930064795236831e-07,0.19360884339646098,0.08355072313621482,-6.837419210557818e-07,0.41770945250647906,-0.22318217533156123,-4.366241260106482e-06,idle
1765388198.9868503,Left,0.3665686547756195,0.5380603075027466,-1.70832990420422e-07,0.008952672318086568,-0.12661173164195555,-1.394107303007792e-07,0.20096968747743876,-0.5135213828028374,-1.6955639916615493e-06,idle
1765388198.9868503,Right,0.6728246212005615,0.5692567229270935,-2.16481041093175e-07,-0.037269642301621955,-0.012979516466454896,9.160678936546817e-07,-2.763791654401126,-1.1555406291085826,1.915094427770887e-05,idle
1765388199.101819,Left,0.3665686547756195,0.5380603075027466,-1.70832990420422e-07,0.008952672318086568,-0.12661173164195555,-1.394107303007792e-07,0.20096968747743876,-0.5135213828028374,-1.6955639916615493e-06,idle
1765388199.101819,Right,0.6619992852210999,0.5641069412231445,-1.2904935431379272e-07,-0.09415892114289506,-0.044792872044362046,7.604820133499033e-07,-0.4948237293008232,-0.2767130040891353,-1.3532881254087466e-06,idle
1765388199.1809688,Left,0.3665686547756195,0.5380603075027466,-1.70832990420422e-07,0.008952672318086568,-0.12661173164195555,-1.394107303007792e-07,0.20096968747743876,-0.5135213828028374,-1.6955639916615493e-06,idle
1765388199.1809688,Right,0.6574556231498718,0.5695484280586243,-2.222398762796729e-07,-0.057405912439980965,0.06874928459114761,-1.1773954269366618e-06,0.46434791285768157,1.4345237387566183,-2.448369198954058e-05,idle
1765388199.3032181,Left,0.3665686547756195,0.5380603075027466,-1.70832990420422e-07,0.008952672318086568,-0.12661173164195555,-1.394107303007792e-07,0.20096968747743876,-0.5135213828028374,-1.6955639916615493e-06,idle
1765388199.3032181,Right,0.6707237362861633,0.5759685039520264,-1.8922506228591374e-07,0.10853318667345359,0.05251623107512223,2.7006123126679425e-07,1.3573820961204852,-0.13278640372125908,1.1840197778901238e-05,idle
1765388199.3928702,Left,0.3688541352748871,0.5817419290542603,-2.430161316624435e-07,0.0046684686000925315,0.08922687315849709,-1.4744589964885473e-07,-0.008751188443858698,0.44088573475976217,-1.6413150674415247e-08,idle
1765388199.3928702,Right,0.6707237362861633,0.5759685039520264,-1.8922506228591374e-07,0.10853318667345359,0.05251623107512223,2.7006123126679425e-07,1.3573820961204852,-0.13278640372125908,1.1840197778901238e-05,idle
1765388199.4826262,Left,0.3719685971736908,0.5922995209693909,-1.0544614781338169e-07,0.03469920098601725,0.11762545688299546,1.5327105208945754e-06,0.3345818483818203,0.31639756606208935,1.871915188520281e-05,idle
1765388199.4826262,Right,0.6707237362861633,0.5759685039520264,-1.8922506228591374e-07,0.10853318667345359,0.05251623107512223,2.7006123126679425e-07,1.3573820961204852,-0.13278640372125908,1.1840197778901238e-05,idle
1765388199.590512,Left,0.361331969499588,0.587489128112793,-1.0171851272389176e-07,-0.09859151038881252,-0.04458780657052061,3.4551662887095285e-08,-1.2354792287445782,-1.5035640185017132,-1.3886520158354156e-05,idle
1765388199.590512,Right,0.6707237362861633,0.5759685039520264,-1.8922506228591374e-07,0.10853318667345359,0.05251623107512223,2.7006123126679425e-07,1.3573820961204852,-0.13278640372125908,1.1840197778901238e-05,idle
1765388199.7019758,Left,0.35450151562690735,0.5851374864578247,1.7413796626897238e-08,-0.06127957939137521,-0.021097809044882173,1.068798347081796e-06,0.3347448764639171,0.21074107154619315,9.27876872836599e-06,idle
1765388199.7019758,Right,0.6707237362861633,0.5759685039520264,-1.8922506228591374e-07,0.10853318667345359,0.05251623107512223,2.7006123126679425e-07,1.3573820961204852,-0.13278640372125908,1.1840197778901238e-05,idle
1765388199.7938259,Left,0.35450151562690735,0.5851374864578247,1.7413796626897238e-08,-0.06127957939137521,-0.021097809044882173,1.068798347081796e-06,0.3347448764639171,0.21074107154619315,9.27876872836599e-06,idle
1765388199.7938259,Right,0.6695777177810669,0.5870708227157593,-2.325651422552255e-07,-0.0023359160795389934,0.02262972613883654,-8.833957675081533e-08,-0.2259831919755811,-0.060917312531542984,-7.305241640034893e-07,idle
1765388199.8855257,Left,0.35450151562690735,0.5851374864578247,1.7413796626897238e-08,-0.06127957939137521,-0.021097809044882173,1.068798347081796e-06,0.3347448764639171,0.21074107154619315,9.27876872836599e-06,idle
1765388199.8855257,Right,0.6921837329864502,0.5886304378509521,-1.709673398408995e-07,0.24652186460816863,0.017007828567120017,6.717329422714472e-07,2.7138300828345465,-0.061307605936921396,8.28870072520235e-06,idle
1765388199.9897232,Left,0.35450151562690735,0.5851374864578247,1.7413796626897238e-08,-0.06127957939137521,-0.021097809044882173,1.068798347081796e-06,0.3347448764639171,0.21074107154619315,9.27876872836599e-06,idle
1765388199.9897232,Right,0.7040872573852539,0.6084107756614685,-2.9100007736815314e-07,0.11424001684071793,0.189835047913673,-1.1519732725485086e-06,-1.26952993167247,1.6586503112194981,-1.7502398593352033e-05,idle
1765388200.2006176,Left,0.35450151562690735,0.5851374864578247,1.7413796626897238e-08,-0.06127957939137521,-0.021097809044882173,1.068798347081796e-06,0.3347448764639171,0.21074107154619315,9.27876872836599e-06,idle
1765388200.2006176,Right,0.7040872573852539,0.6084107756614685,-2.9100007736815314e-07,0.11424001684071793,0.189835047913673,-1.1519732725485086e-06,-1.26952993167247,1.6586503112194981,-1.7502398593352033e-05,idle
1765388200.235997,Left,0.3677481412887573,0.5825578570365906,-2.9019690828135936e-07,0.02480543313895994,-0.004830575481271712,-5.760272063402189e-07,0.16120150724403715,0.0304617783289598,-3.0800757364320737e-06,idle
1765388200.235997,Right,0.7040872573852539,0.6084107756614685,-2.9100007736815314e-07,0.11424001684071793,0.189835047913673,-1.1519732725485086e-06,-1.26952993167247,1.6586503112194981,-1.7502398593352033e-05,idle
1765388200.301867,Left,0.3450752794742584,0.5896900296211243,-1.3034453161253623e-07,-0.34420594761092954,0.10827641623141825,2.42678402220781e-06,-5.6021120328536895,1.7171232984356477,4.5586900007397995e-05,idle
1765388200.301867,Right,0.7040872573852539,0.6084107756614685,-2.9100007736815314e-07,0.11424001684071793,0.189835047913673,-1.1519732725485086e-06,-1.26952993167247,1.6586503112194981,-1.7502398593352033e-05,idle
1765388200.4020889,Left,0.3335431218147278,0.5832343101501465,8.754695102197729e-08,-0.1150662763672177,-0.06441427725217135,2.1740911197277353e-06,2.286323992131015,-1.7230838884696575,-2.5213348803618476e-06,idle
1765388200.4020889,Right,0.7040872573852539,0.6084107756614685,-2.9100007736815314e-07,0.11424001684071793,0.189835047913673,-1.1519732725485086e-06,-1.26952993167247,1.6586503112194981,-1.7502398593352033e-05,idle
1765388200.5482697,Left,0.3335431218147278,0.5832343101501465,8.754695102197729e-08,-0.1150662763672177,-0.06441427725217135,2.1740911197277353e-06,2.286323992131015,-1.7230838884696575,-2.5213348803618476e-06,idle
1765388200.5482697,Right,0.703723132610321,0.6103023886680603,-2.750749672486563e-07,-0.0006519148304061016,0.003386670331931256,2.8511697575822742e-08,-0.2056980444800015,-0.33380992126423015,2.1134943625779177e-06,idle
1765388200.6037521,Left,0.3335431218147278,0.5832343101501465,8.754695102197729e-08,-0.1150662763672177,-0.06441427725217135,2.1740911197277353e-06,2.286323992131015,-1.7230838884696575,-2.5213348803618476e-06,idle
1765388200.6037521,Right,0.8254889845848083,0.6903787851333618,-5.717319595532899e-07,2.194675776717803,1.4432759657943364,-5.346867815956744e-06,39.568010476435994,25.952186977418883,-9.688443038600704e-05,idle
1765388200.6848133,Left,0.3335431218147278,0.5832343101501465,8.754695102197729e-08,-0.1150662763672177,-0.06441427725217135,2.1740911197277353e-06,2.286323992131015,-1.7230838884696575,-2.5213348803618476e-06,idle
1765388200.6848133,Right,0.693726122379303,0.591925859451294,-1.6527248192232946e-07,-1.6989615388162527,-1.2694603875323174,5.240923034180215e-06,-50.204890319358334,-34.978252992580124,0.00013651987467726498,firing
1765388200.7999356,Left,0.3335431218147278,0.5832343101501465,8.754695102197729e-08,-0.1150662763672177,-0.06441427725217135,2.1740911197277353e-06,2.286323992131015,-1.7230838884696575,-2.5213348803618476e-06,idle
