time,hand,pos_x,pos_y,pos_z,vel_x,vel_y,vel_z,acc_x,acc_y,acc_z,state
1765388263.0374153,Left,0.5624420642852783,0.392706960439682,-1.2220047551636526e-07,-0.01800720123009553,0.08003219648520557,-1.1953793166079193e-07,-0.1285590525190821,1.3557940520711764,-1.3709134563834901e-06,idle
1765388263.0374153,Right,0.679253101348877,0.6079191565513611,-1.8928734846213047e-07,-0.01218267688812237,0.005634041078369078,-1.9086950079720946e-07,-0.24468782010047108,0.08189327259569404,-2.2317705405576427e-06,idle
1765388263.1338234,Left,0.5604143142700195,0.38776350021362305,-1.5045564794036181e-07,-0.02092173720526918,-0.05100519046037662,-2.9152868336631724e-07,-0.030071337832096576,-1.352005796133976,-1.774550749274914e-06,idle
1765388263.1338234,Right,0.6792240738868713,0.607004702091217,-1.772641411434961e-07,-0.000299496943532219,-0.009435076196450315,1.2405196991347784e-07,0.12260720803491691,-0.15547878642176569,3.2492685000251374e-06,idle
1765388263.2289143,Left,0.5611622333526611,0.3917005658149719,-1.5756290849822108e-07,0.00786530939725203,0.04140319426336375,-7.474177962809984e-08,0.30273198453801303,0.9717903361757174,2.279786825536105e-06,idle
1765388263.2289143,Right,0.6786245107650757,0.6057971119880676,-1.6946471248502348e-07,-0.006305159963895296,-0.012699328051348912,8.202079736221615e-08,-0.06315709665269516,-0.03432771189451561,-4.420106186853051e-07,idle
1765388263.3223774,Left,0.5653619170188904,0.3853808343410492,-8.332910539365912e-08,0.04493409657332793,-0.06761733666995737,7.942571733505691e-07,0.3966137917052849,-1.1664542986476278,9.297767636466758e-06,idle
1765388263.3223774,Right,0.679821252822876,0.6062431931495667,-1.6956786907940113e-07,0.012804422302321606,0.004772800902010902,-1.1037136942513655e-09,0.20446106975412198,0.18694130132825412,-8.89382416456051e-07,idle
1765388263.4490597,Left,0.5744067430496216,0.37887170910835266,-1.6236690214554983e-07,0.07139771974464754,-0.05138149673281339,-6.239056939904134e-07,0.20889758898558847,0.12816188456390346,-1.1194642617851622e-05,idle
1765388263.4490597,Right,0.6788081526756287,0.6056382060050964,-1.723624336591456e-07,-0.007997173206058599,-0.004775625583426179,-2.2059632545169545e-08,-0.16420288033210337,-0.07537302275282057,-1.6542107233747162e-07,idle
1765388263.5280612,Left,0.5851947665214539,0.36766889691352844,-1.6015945902836393e-07,0.13655479303226742,-0.14180518837745507,2.7941813325201002e-08,0.8247581849085491,-1.1445830211611896,8.251085259732464e-06,idle
1765388263.5280612,Right,0.6796703934669495,0.6072931885719299,-1.771405635508927e-07,0.010914243291203418,0.020948768092323666,-6.048156459359229e-08,0.23938069586828686,0.3256193558944829,-4.863447871124341e-07,idle
1765388263.6252303,Left,0.5953238606452942,0.35654112696647644,-2.1494882673778193e-07,0.10424186064771308,-0.1145195641345873,-5.638555199421989e-07,-0.33254308367238394,0.28080539140379684,-6.090382258463941e-06,idle
1765388263.6257463,Right,0.6805965900421143,0.6039903163909912,-1.6505575217706792e-07,0.00953179555252394,-0.03399095095900696,1.243687942655353e-07,-0.014227227308411548,-0.5654028353724074,1.9023562337642934e-06,idle
1765388263.721037,Left,0.6086925268173218,0.3477587401866913,-1.8317317085347895e-07,0.13953805226929988,-0.0916678694611315,3.316645860267357e-07,0.3684108622373669,0.23851900591688874,9.347165210570141e-06,idle
1765388263.721037,Right,0.6810587048530579,0.6046208143234253,-1.9087883629254065e-07,0.004823413182295529,0.00658094474942888,-2.695334609071818e-07,-0.049144656379817214,0.4234770493315166,-4.1114313697422074e-06,idle
1765388263.8360527,Left,0.6127104759216309,0.34601983428001404,-2.093696309657389e-07,0.03493390490681183,-0.015118850938307792,-2.277641211222223e-07,-0.9094767608928342,0.6655525155652618,-4.863931510910206e-06,idle
1765388263.8360527,Right,0.6828089356422424,0.6025563478469849,-1.6783678802312352e-07,0.015217314696389593,-0.01794942486800674,2.0033820792769935e-07,0.09036937942163588,-0.21327836099900022,4.08528126448364e-06,idle
1765388263.9300735,Left,0.6128315925598145,0.347511887550354,-2.3634568435682013e-07,0.0012881892319552076,0.015869388262263157,-2.8691567087887354e-07,-0.3578537951827652,0.32958903627193864,-6.291323024874259e-07,idle
1765388263.9300735,Right,0.6824134588241577,0.6056931614875793,-1.79857394755345e-07,-0.004206267497058465,0.03336295999513125,-1.2785044553947626e-07,-0.20658804440780815,0.5457554192219113,-3.4905946514585665e-06,idle
1765388264.0263977,Left,0.6131519079208374,0.3537769615650177,-2.0611663842373673e-07,0.0033253880444441145,0.06504153331699722,3.1382606072902463e-07,0.021149396499660834,0.5104858623154486,6.236664285183729e-06,idle
1765388264.0263977,Right,0.6825029850006104,0.6030856370925903,-1.646854599357539e-07,0.0009294255382871344,-0.027070292292574745,1.5750905763317095e-07,0.05331674436446894,-0.627394246728037,2.9624900822375693e-06,idle
1765388264.120058,Left,0.6086835265159607,0.35820987820625305,-2.423505520710023e-07,-0.047708354546380206,0.04732970165970879,-3.8686500597286584e-07,-0.5448809456360473,-0.18910703178772906,-7.481191690846161e-06,idle
1765388264.120058,Right,0.6836050152778625,0.6043504476547241,-1.8266521806253877e-07,0.01176624070868547,0.013504225638936971,-1.919676495015943e-07,0.11570333269642201,0.43320910003617585,-3.731319495576251e-06,idle
1765388264.2210548,Left,0.5942042469978333,0.36634957790374756,-2.6479827397452027e-07,-0.14336384088231893,0.08059369327047693,-2.222618623473257e-07,-0.947114661707966,0.3293571060926445,1.6297868179088301e-06,idle
1765388264.2210548,Right,0.6808034777641296,0.6028528213500977,-1.7525916007343767e-07,-0.027738892521676727,-0.014828462905826336,7.332967899303536e-08,-0.3911525865207492,-0.28053074375796405,2.6267911978072784e-06,idle
1765388264.331895,Left,0.5942042469978333,0.36634957790374756,-2.6479827397452027e-07,-0.14336384088231893,0.08059369327047693,-2.222618623473257e-07,-0.947114661707966,0.3293571060926445,1.6297868179088301e-06,idle
1765388264.331895,Right,0.6793628334999084,0.5996291041374207,-1.6129385471685964e-07,-0.012997474714883694,-0.029084336779250503,1.2599481201966164e-07,0.13299688893628978,-0.12861631758105752,4.7514417810812415e-07,idle
1765388264.422368,Left,0.5942042469978333,0.36634957790374756,-2.6479827397452027e-07,-0.14336384088231893,0.08059369327047693,-2.222618623473257e-07,-0.947114661707966,0.3293571060926445,1.6297868179088301e-06,idle
1765388264.422368,Right,0.6779534220695496,0.5994381904602051,-1.6684498405084014e-07,-0.015578265532807514,-0.0021101744270313146,-6.135679398434067e-08,-0.028525555973397572,0.2981462010287014,-2.0708027503261405e-06,idle
1765388264.517626,Left,0.5942042469978333,0.36634957790374756,-2.6479827397452027e-07,-0.14336384088231893,0.08059369327047693,-2.222618623473257e-07,-0.947114661707966,0.3293571060926445,1.6297868179088301e-06,idle
1765388264.517626,Right,0.6759112477302551,0.5999476909637451,-1.67496608582951e-07,-0.02143835050720702,0.005348637561601938,-6.840628074542442e-09,-0.06151803656812129,0.07830116298245338,5.723001462681686e-07,idle
1765388264.619202,Left,0.5942042469978333,0.36634957790374756,-2.6479827397452027e-07,-0.14336384088231893,0.08059369327047693,-2.222618623473257e-07,-0.947114661707966,0.3293571060926445,1.6297868179088301e-06,idle
1765388264.619202,Right,0.6726714372634888,0.6012753844261169,-1.7533250229462283e-07,-0.03189547929771852,0.013070955778800113,-7.714327372650441e-08,-0.10294896515481539,0.07602513892514123,-6.921196785949834e-07,idle
1765388264.7438943,Left,0.5282764434814453,0.41920205950737,-1.4227592259885569e-07,-0.12609567121518614,0.10108738328496618,2.343402526937964e-07,0.033027665547716474,0.039196901158865746,8.733121248317054e-07,idle
1765388264.7438943,Right,0.6751309633255005,0.6056070327758789,-1.8966464665481908e-07,0.019724740821188608,0.03473866056849166,-1.1493996232977676e-07,0.41398035121666366,0.17376919389791629,-3.031193277898952e-07,idle
1765388264.828497,Left,0.5202995538711548,0.4311566948890686,-1.221074086288354e-07,-0.09428658387088593,0.141303413564643,2.3839119968919727e-07,0.37598241022110185,0.4753522108450906,4.788206585504762e-08,idle
1765388264.828497,Right,0.6735451817512512,0.6036514043807983,-1.9731925249288906e-07,-0.0187438882454227,-0.023115466015121926,-9.047719983722734e-08,-0.45469798356090635,-0.6838339534454283,2.8914908192935583e-07,idle
1765388264.923264,Left,0.5202995538711548,0.4311566948890686,-1.221074086288354e-07,-0.09428658387088593,0.141303413564643,2.3839119968919727e-07,0.37598241022110185,0.4753522108450906,4.788206585504762e-08,idle
1765388264.923264,Right,0.6699594259262085,0.6000901460647583,-1.753349181399244e-07,-0.03783756245565837,-0.037579060183857385,2.3198278541915622e-07,-0.20148000189867293,-0.1526225360552272,3.4026577455099617e-06,idle
1765388265.0272336,Left,0.5202995538711548,0.4311566948890686,-1.221074086288354e-07,-0.09428658387088593,0.141303413564643,2.3839119968919727e-07,0.37598241022110185,0.4753522108450906,4.788206585504762e-08,idle
1765388265.0272336,Right,0.6707105040550232,0.5974400639533997,-1.7492726556156413e-07,0.007259644190441075,-0.025614716320228603,3.940219477408986e-09,0.4358929672870938,0.11564293525508977,-2.2041753387558974e-06,idle
1765388265.1212077,Left,0.5202995538711548,0.4311566948890686,-1.221074086288354e-07,-0.09428658387088593,0.141303413564643,2.3839119968919727e-07,0.37598241022110185,0.4753522108450906,4.788206585504762e-08,idle
1765388265.1212077,Right,0.671386182308197,0.5984357595443726,-1.9086300540038792e-07,0.007197953891441445,0.01060707654874112,-1.6976233887514316e-07,-0.0006571825061155819,0.38586826453494255,-1.8504413897799795e-06,idle
1765388265.2240763,Left,0.5202995538711548,0.4311566948890686,-1.221074086288354e-07,-0.09428658387088593,0.141303413564643,2.3839119968919727e-07,0.37598241022110185,0.4753522108450906,4.788206585504762e-08,idle
1765388265.2240763,Right,0.6734529733657837,0.5968568325042725,-1.8354342046222882e-07,0.01997246765813817,-0.015257986107111177,7.07329233459524e-08,0.12344671325978582,-0.24994743686037282,2.3240297218311653e-06,idle
1765388265.3350399,Left,0.5202995538711548,0.4311566948890686,-1.221074086288354e-07,-0.09428658387088593,0.141303413564643,2.3839119968919727e-07,0.37598241022110185,0.4753522108450906,4.788206585504762e-08,idle
1765388265.3350399,Right,0.6755473613739014,0.597187340259552,-1.8537076584834722e-07,0.019047175068354738,0.0030057654321255342,-1.6618586119115972e-08,-0.008414968897236986,0.166097624520599,-7.94408431874826e-07,idle
1765388265.4531546,Left,0.5844259262084961,0.34713196754455566,-1.5980114653757482e-07,0.10265843105583045,-0.13451324883473462,-6.034303599749367e-08,0.31528473387337813,-0.44154853594435706,-4.782367506605449e-07,idle
1765388265.4531546,Right,0.6755905151367188,0.5970700979232788,-1.766572808037381e-07,0.00036227025360919244,-0.0009842342387421017,7.314857919316648e-08,-0.15685735759698033,-0.03349553082503309,7.535837345419034e-07,idle
1765388265.5199168,Left,0.5806236863136292,0.3466985821723938,-2.4841483536874875e-07,-0.05738788890728119,-0.0065411631773266065,-1.3374623040416422e-06,-2.4156078217110086,1.9315056487769042,-1.9275790245326073e-05,idle
1765388265.5199168,Right,0.6747011542320251,0.5953578948974609,-1.7081033831800596e-07,-0.013423283698100716,-0.025842587461406146,8.824895195893495e-08,-0.20806783911085763,-0.37519158511962364,2.2791263536799554e-07,idle
1765388265.63534,Left,0.5814614295959473,0.3493530750274658,-1.4858160568564927e-07,0.007226265663335712,0.022897313505276125,8.611485820842965e-07,0.5573533759018704,0.25393250858873656,1.896493435254422e-05,idle
1765388265.63534,Right,0.6755673885345459,0.5957363247871399,-1.7032239441050478e-07,0.007472025534347769,0.003264287491748021,4.2089413055665386e-09,0.18024024640747524,0.25107215477630573,-7.249183086856387e-07,idle
1765388265.721781,Left,0.5801457166671753,0.3478397727012634,-2.0026324420996389e-07,-0.015220928949691086,-0.01750675750220653,-5.978831177986731e-07,-0.25968214407048973,-0.4674176871220447,-1.6878923474586104e-05,idle
1765388265.721781,Right,0.675631046295166,0.5974125862121582,-1.8648647426289244e-07,0.0007364298323036187,0.019391962709620476,-1.8699543463478862e-07,-0.07792127094954376,0.1865742847446583,-2.2119629270303823e-06,idle
1765388265.8184638,Left,0.5785736441612244,0.34848982095718384,-2.1062298571905558e-07,-0.016260107467751042,0.006723515906854706,-1.0715187094634581e-07,-0.010748330193340712,0.2506162076576794,5.07568371140471e-06,idle
1765388265.8184638,Right,0.6761131882667542,0.5971918702125549,-1.7501388072105328e-07,0.004986843954754055,-0.0022828882636239663,1.1866221387243977e-07,0.043962470020863134,-0.22418521082095955,3.161448466437812e-06,idle
1765388265.9217846,Left,0.5783056020736694,0.35066545009613037,-1.8793268452554912e-07,-0.0025942694163499547,0.021057022007158036,2.196101178402408e-07,0.1322660408629884,0.13872812603528867,3.16259525385543e-06,idle
1765388265.9217846,Right,0.6745374798774719,0.5961169600486755,-1.7636895677242137e-07,-0.015250635154686991,-0.010403614555137887,-1.3115225257944044e-08,-0.1958702590199927,-0.0785971787072658,-1.2754197791076805e-06,idle
1765388266.0365098,Left,0.5789192318916321,0.35055115818977356,-2.1723198528889043e-07,0.005348696570184043,-0.0009962239604980965,-2.553869856291989e-07,0.06923476285803483,-0.19222684037790316,-4.14030626251119e-06,idle
1765388266.0365098,Right,0.6766831278800964,0.595806360244751,-1.6743149444664596e-07,0.018702513757502204,-0.002707339274135896,7.790327765808476e-08,0.29595219433197306,0.06708448643412146,7.933616328922993e-07,idle
1765388266.1218548,Left,0.5791056752204895,0.34899112582206726,-1.8456796624377603e-07,0.0021845833228573905,-0.018279123820059615,3.827290131577831e-07,-0.03707437039502733,-0.2025062255388359,7.476897014988236e-06,idle
1765388266.1218548,Right,0.6767457127571106,0.5957379341125488,-1.6942109937190253e-07,0.0007333160131074999,-0.0008017588409975333,-2.3312487314117212e-08,-0.21054767664844046,0.02232796024458943,-1.1859596882526033e-06,idle
1765388266.2195206,Left,0.5765582323074341,0.3555816411972046,-2.0561581948186358e-07,-0.026083268235523874,0.06748028756957328,-2.1550897136003218e-07,-0.2894345348665286,0.8780906215925759,-6.125358781893884e-06,idle
1765388266.2195206,Right,0.6756241917610168,0.5976635813713074,-1.841958976456226e-07,-0.011483253588516746,0.01971670247046187,-1.512791609673304e-07,-0.12508545734393856,0.21008852737159314,-1.3102507840307752e-06,idle
1765388266.320823,Left,0.5770142674446106,0.3554728329181671,-1.7066074065041903e-07,0.004501721609911202,-0.0010740939483587632,3.450568189239249e-07,0.30191776576377516,-0.6767301805823782,5.533589248236997e-06,idle
1765388266.320823,Right,0.6752889156341553,0.5963960289955139,-1.7312478917119734e-07,-0.003309656784178605,-0.012512561986194172,1.0928773728613043e-07,0.08068513665987127,-0.31814911713680916,2.5721694252719713e-06,idle
1765388266.4161966,Left,0.5687616467475891,0.3654482960700989,-1.1426455159835314e-07,-0.08652937559058661,0.10459351392159509,5.913184676141956e-07,-0.9544681973482644,1.1079331602430316,2.582072710644301e-06,idle
1765388266.4161966,Right,0.6754795908927917,0.5971865057945251,-1.724570353189847e-07,0.00199924504907181,0.008288211266267692,7.001451539027038e-09,0.055664252310623684,0.2180977397866484,-1.0724797324529374e-06,idle
1765388266.522297,Left,0.5605050921440125,0.3750722110271454,-1.8967106996115035e-07,-0.07781837547779073,0.09070580449735628,-7.107096169250923e-07,0.08210154357496503,-0.1308922472375719,-1.2271669628565815e-05,idle
1765388266.522297,Right,0.6749640107154846,0.5976284146308899,-1.8630625220339425e-07,-0.004859364923137768,0.004165009426606175,-1.3052945342570393e-07,-0.06464268834871145,-0.03886135129421946,-1.2962345816388834e-06,idle
1765388266.6247394,Left,0.5516425967216492,0.3863723874092102,-1.499299884244465e-07,-0.08700150026798859,0.11093176940342697,3.90130945200952e-07,-0.09014906026121518,0.19855460650005013,1.0806750908908493e-05,idle
1765388266.6247394,Right,0.6735050678253174,0.5964386463165283,-1.726785825439947e-07,-0.014322176114142073,-0.011679738424414346,1.337803461689291e-07,-0.0928946906187005,-0.15554499818733636,2.594681069424182e-06,idle
1765388266.7133632,Left,0.5484194159507751,0.3903714418411255,-1.5453619539584906e-07,-0.036134208957777046,0.04483231898816731,-5.1638942100754786e-08,0.5702594623077502,-0.7410230834343008,-4.952562873066791e-06,idle
1765388266.7133632,Right,0.6737164258956909,0.5973007082939148,-1.8609023300086847e-07,0.0023694782336762597,0.009664343963243017,-1.5035439043833993e-07,0.1871256280458335,0.23928274205932337,-3.1853577799627803e-06,idle
1765388266.8104775,Left,0.5418148636817932,0.40295252203941345,-2.3246074931648764e-07,-0.06800801321788146,0.1295491705681185,-8.024002047680366e-07,-0.328209091720836,0.8723414589486962,-7.730695404553175e-06,idle
1765388266.8104775,Right,0.6725913882255554,0.596278727054596,-1.768672319713005e-07,-0.011584672756777725,-0.010523486044382031,9.497055218613312e-08,-0.14368787562784963,-0.20787695427089728,2.5261457947781456e-06,idle
1765388266.9339173,Left,0.5355942249298096,0.4100261926651001,-1.558595243977834e-07,-0.050394113693253806,0.05730462352050434,6.20555378877246e-07,0.1426922363788742,-0.5852614277712465,1.1527527689950523e-05,idle
1765388266.9339173,Right,0.6710374355316162,0.5959770679473877,-1.7841813360064407e-07,-0.012588750424920424,-0.002443775302079792,-1.2564033397899841e-08,-0.008134149270298832,0.0654546708127593,-8.711501098099675e-07,idle
1765388267.022232,Left,0.5309056639671326,0.4188796877861023,-1.414824879475418e-07,-0.05308920438746392,0.10024931226529957,1.6279311129125138e-07,-0.030516873268078233,0.4862684683589384,-5.183303529206136e-06,idle
1765388267.022232,Right,0.672152578830719,0.5956655144691467,-1.9089519298631785e-07,0.012626917085786636,-0.00352776180487502,-1.4127941625448234e-07,0.2855203839512246,-0.012274124503926728,-1.4574615372777732e-06,idle
1765388267.1180382,Left,0.5284356474876404,0.4216381907463074,-1.3942626253538037e-07,-0.02578140553454111,0.028792554250447938,2.1462359324931244e-08,0.2850318782600278,-0.7458475163466162,-1.475174542841291e-06,idle
1765388267.1180382,Right,0.6777297258377075,0.5965233445167542,-1.949285319824412e-07,0.05821284590881943,0.00895381246267171,-4.2098969452508815e-08,0.4758143629458534,0.13027950646194586,1.0352203482562831e-06,idle
1765388267.2129948,Left,0.5259937047958374,0.4234018623828888,-1.1558120860399868e-07,-0.0257163983860479,0.0185734426040168,2.511151913984739e-07,0.0006845982644080959,-0.10761871977310442,2.418502178577694e-06,idle
1765388267.2129948,Right,0.6735262870788574,0.6002823114395142,-1.9201641521249257e-07,-0.04426692980011399,0.03958614230799167,3.066785934578848e-08,-1.0792271036868368,0.32259282760376545,7.663164106790338e-07,idle
1765388267.306575,Left,0.5262245535850525,0.42227381467819214,-1.0487725887742272e-07,0.0024803455192394888,-0.012120263135648578,1.150081567798069e-07,0.302958779382898,-0.32978728525754214,-1.4623965523113091e-06,idle
1765388267.306575,Right,0.6756563186645508,0.5976054668426514,-2.0479303941556282e-07,0.02288603859425313,-0.028761248972126372,-1.3727792422409136e-07,0.7215223646046884,-0.7343557932001882,-1.8044867082434346e-06,idle
1765388267.427705,Left,0.524203360080719,0.43159219622612,-9.648000087736364e-08,-0.016616326042599733,0.07660684919961348,6.903424956277122e-08,-0.15699462734252173,0.7294297276436452,-3.7795363488584005e-07,idle
1765388267.427705,Right,0.6744511723518372,0.5928850173950195,-1.7533133700453618e-07,-0.009907564029941729,-0.03880703501237772,2.4220602925057214e-07,-0.2695977362616569,-0.08258687544815646,3.1197552759546818e-06,idle
1765388267.5130067,Left,0.5248571634292603,0.42826446890830994,-1.3671478882315569e-07,0.007664604883993281,-0.03901129461877517,-4.7167661787570433e-07,0.28464788714082856,-1.3554035655611751,-6.338809926018061e-06,idle
1765388267.5130067,Right,0.6731901168823242,0.5973691940307617,-1.9216547286760033e-07,-0.01478348486923565,0.052568470656630735,-1.9734833148488434e-07,-0.05716092883617031,1.071204588643737,-5.152941641535376e-06,idle
1765388267.6193714,Left,0.5219568610191345,0.43579214811325073,-1.3314537739006482e-07,-0.027267520834921077,0.07077232665211174,3.3558224921790573e-08,-0.3284183271796429,1.0321431206227973,4.7500224646958575e-06,idle
1765388267.6193714,Right,0.6712872385978699,0.6222798228263855,-1.9311497112539655e-07,-0.017890125211263187,0.23420009145398385,-8.926815161339453e-09,-0.02920743021730961,1.7076302067954376,1.771466176824282e-06,idle
1765388267.7088518,Left,0.5217328071594238,0.430330365896225,-1.1077442252371839e-07,-0.00251980179436165,-0.061425447651938886,2.515929530809724e-07,0.27832301985460245,-1.4867505042407658,2.4521081670187345e-06,idle
1765388267.7088518,Right,0.6823233962059021,0.6463852524757385,1.9906596371299656e-09,0.12411716441522365,0.2710995693746548,2.1942381136405485e-06,1.5970723453516924,0.41498669469730687,2.4777698308960207e-05,idle
1765388267.8353188,Left,0.5174969434738159,0.4326455593109131,-1.2548696304293117e-07,-0.033478554994224426,0.018298353254202603,-1.1628197539754664e-07,-0.24468547585130337,0.6301047085281286,-2.9075347882203998e-06,idle
1765388267.8353188,Right,0.6924368739128113,0.6095699071884155,9.067494310954771e-09,0.07993284126305157,-0.29097361324934096,5.5932441739724235e-08,-0.3492150367252163,-4.442399319692841,-1.69003040098822e-05,idle
1765388267.9221957,Left,0.5180182456970215,0.4336027503013611,-1.157838980248016e-07,0.005965763366693223,0.010954058301592325,1.1104151728693754e-07,0.4513993208292052,-0.08404783987501802,2.6014816447676523e-06,idle
1765388267.9221957,Right,0.66628497838974,0.6349663734436035,-9.637468423306927e-08,-0.29928132537352525,0.29063622076462176,-1.2066763924277622e-06,-4.339712901165761,6.655921434850262,-1.4449248811987801e-05,idle
1765388268.011389,Left,0.5185684561729431,0.4353345036506653,-1.2594534837262472e-07,0.006168739174133396,0.019415723969805187,-1.1392610568097616e-07,0.0022756833421977516,0.09486880161358306,-2.5222467572782226e-06,idle
1765388268.011389,Right,0.6661956906318665,0.6333522796630859,-7.691282633004448e-08,-0.001001058529179052,-0.0180965720762141,2.181985449235734e-07,3.3441987157215873,-3.4613882448289495,1.597512629972536e-05,idle
1765388268.1066408,Left,0.5147611498832703,0.438220739364624,-1.5170662948094105e-07,-0.03997096479481371,0.03030111510206125,-2.7045453712059773e-07,-0.4843971938870148,0.11428016361735135,-1.6433120811507216e-06,idle
1765388268.1066408,Right,0.6659579873085022,0.6291606426239014,-9.88329134088417e-08,-0.002495525825062889,-0.04400585710173585,-2.3012780224759398e-07,-0.015689649092010965,-0.2720083546792636,-4.706749411775318e-06,idle
1765388268.2193925,Left,0.5104926824569702,0.44174137711524963,-1.4621747368437354e-07,-0.03785722592854953,0.031224691540763138,4.868356494119717e-08,0.01874684326301201,0.008191240183020396,2.8304499075525085e-06,idle
1765388268.2193925,Right,0.6591264605522156,0.6278113126754761,-1.4572509599020123e-07,-0.06058911220832496,-0.011967266844993286,-4.158888361962014e-07,-0.5152345807209787,0.284151670528988,-1.6475228058631674e-06,idle
1765388268.3123012,Left,0.506946325302124,0.44662633538246155,-1.2912583713386994e-07,-0.03817037776471886,0.05257809472730679,1.8396179382510446e-07,-0.0033705358378708482,0.22983231259686052,1.4560352706677099e-06,idle
1765388268.3123012,Right,0.6612571477890015,0.6258809566497803,-1.3305125889928604e-07,0.02293314891181897,-0.020776931229422587,1.3641185260420267e-07,0.8989721338029346,-0.09482074220148312,5.944558038216029e-06,idle
1765388268.420938,Left,0.5050944685935974,0.45375490188598633,-1.1668029742395447e-07,-0.017046302473796023,0.0656183063539161,1.1456093409821724e-07,0.19444667356299233,0.12003487671913453,-6.388334698893945e-07,idle
1765388268.420938,Right,0.662600040435791,0.6202907562255859,-1.3415210275979916e-07,0.012361298874589602,-0.05145767859964535,-1.0133244832780947e-08,-0.09731365964357168,-0.2824156412247722,-1.3489445730119435e-06,idle
1765388268.5110977,Left,0.5013253092765808,0.45441335439682007,-1.4263007130921324e-07,-0.04180538770933766,0.007303183598346718,-2.8782024504646583e-07,-0.274613798606857,-0.646798426669811,-4.462984922165293e-06,idle
1765388268.5110977,Right,0.6628745198249817,0.622960090637207,-1.2720330744286912e-07,0.0030443704598883533,0.029606750635318136,7.707211553132947e-08,-0.10333811120115481,0.899120893697391,9.672326356424177e-07,idle
1765388268.6021304,Left,0.49858877062797546,0.4612866938114166,-1.521847394769793e-07,-0.03006103677396882,0.0755040346342115,-1.0495858748447271e-07,0.12901238048819275,0.749190329195592,2.0087459811033445e-06,idle
1765388268.6021304,Right,0.6626716256141663,0.6256787180900574,-1.3259145248412096e-07,-0.00222880474779935,0.02986428124320686,-5.918908775912876e-08,-0.057926137427171946,0.002828988758521991,-1.496837271078658e-06,idle
1765388268.7222755,Left,0.49303632974624634,0.4628058969974518,-1.8234165111152834e-07,-0.046214466438458106,0.012644738800416729,-2.510041277897218e-07,-0.13444936182067982,-0.5231949118477327,-1.2155765121485687e-06,idle
1765388268.7222755,Right,0.6634694933891296,0.6250629425048828,-1.1534946509073052e-07,0.006640869176960857,-0.005125266656744555,1.435097220658771e-07,0.07382469379633365,-0.29122746582320347,1.6871169893223424e-06,idle
1765388268.8205206,Left,0.48607373237609863,0.469380646944046,-1.5118790486212674e-07,-0.0712408183976015,0.06727239018059489,3.1876299331545215e-07,-0.25606791550521196,0.5589463794285433,5.829818075882337e-06,idle
1765388268.8205206,Right,0.6628074645996094,0.624413013458252,-1.1859197002195287e-07,-0.006773833134515506,-0.00665002939576457,-3.317708789954614e-08,-0.13725831330233862,-0.015601267690084736,-1.807847312264046e-06,idle
1765388268.9103744,Left,0.4816773533821106,0.47867077589035034,-1.7384911643603118e-07,-0.04892452149365087,0.10338396983831341,-2.5218229234462454e-07,0.24834395511148194,0.4018629325519298,-6.353689010472754e-06,idle
1765388268.9103744,Right,0.6600664854049683,0.6220883131027222,-1.3265442078136402e-07,-0.030502624024282173,-0.025870120084265938,-1.5649212121453646e-07,-0.2640627073990371,-0.21388823422307138,-1.3722950196422337e-06,idle
1765388269.0065687,Left,0.4765395522117615,0.4862499237060547,-1.0643820758104994e-07,-0.05313163390345351,0.07837837504653748,6.971176212602555e-07,-0.043507085801282736,-0.2585907986634802,9.817011947701979e-06,idle
1765388269.0065687,Right,0.6646761894226074,0.6212314963340759,-9.222156904797885e-08,0.04767041349944648,-0.008860614368803733,4.18128963099765e-07,0.8084122123685551,0.17590070160134813,5.942339158858179e-06,idle
1765388269.1254165,Left,0.46791502833366394,0.4985924959182739,-1.49543453176193e-07,-0.07294267041994507,0.10438839172289191,-3.645664116951676e-07,-0.16755358646171495,0.2199820072223053,-8.9792862308207e-06,idle
1765388269.1254165,Right,0.6616802215576172,0.6195114850997925,-7.866223938890471e-08,-0.025338662128318565,-0.014547146527074822,1.14679225011944e-07,-0.6174806883780866,-0.048094346646377975,-2.5664528902946433e-06,idle
1765388269.214646,Left,0.4621350169181824,0.5106691122055054,-1.0936150829365943e-07,-0.06433643031914611,0.13442298404004055,4.4725913345060504e-07,0.0957947531162032,0.33431049125621864,9.03630700048059e-06,idle
1765388269.214646,Right,0.6657285690307617,0.6189790964126587,-9.227056807503686e-08,0.04506154164609971,-0.005925937720597211,-1.5147224241293896e-07,0.7836139894905702,0.09596136750856983,-2.9624916124655836e-06,idle
1765388269.3111928,Left,0.456535667181015,0.5193869471549988,-1.0564046704075736e-07,-0.057996313088658734,0.09029660744889442,3.85413813476665e-08,0.06566895107076533,-0.4570472059033811,-4.2333706284698786e-06,idle
1765388269.3111928,Right,0.6628535389900208,0.6234114766120911,-1.1042704528563263e-07,-0.02977866184627086,0.045909207647439415,-1.8805911156132093e-07,-0.7751714175936145,0.5368922215745742,-3.7895534618575094e-07,idle
1765388269.4088838,Left,0.45257243514060974,0.5293369293212891,-1.0513392112443398e-07,-0.040569035451230764,0.10185151288847237,5.1851819493510585e-09,0.17839173610913756,0.11828007132429247,-3.414457750927454e-07,idle
1765388269.4088838,Right,0.661480724811554,0.6257603764533997,-1.3138983945282234e-07,-0.01405260820117829,0.024044163945468655,-2.1458252533672197e-07,0.16097740968264815,-0.22381826853550923,-2.7150298109516545e-07,idle
1765388269.5029655,Left,0.44580692052841187,0.5340554714202881,-1.0431061525650875e-07,-0.07191110395912896,0.050153697222806486,8.750972727453532e-09,-0.33313692689423,-0.5494995148027406,3.7901026904637565e-08,idle
1765388269.5029655,Right,0.6623342037200928,0.6249381899833679,-1.428706610795416e-07,0.009071683979250242,-0.008739074572929523,-1.2203041525425323e-07,0.24578963675135035,-0.3484552186116099,9.837425223762856e-07,idle
1765388269.6194606,Left,0.44019609689712524,0.5374743938446045,-1.1225331064679267e-07,-0.048163588584901024,0.02934819981335036,-6.818049152350596e-08,0.2038498508525831,-0.17859542259457623,-6.603835081815913e-07,idle
1765388269.6194606,Right,0.660955011844635,0.6247750520706177,-1.2617151412541716e-07,-0.011839051525124024,-0.0014003839415819375,1.4334630643751326e-07,-0.1794987916256099,0.06299568468863832,2.2780069529009752e-06,idle
1765388269.7102184,Left,0.43654000759124756,0.5426758527755737,-9.594938887858007e-08,-0.040284002248690456,0.05731139634220025,1.7964200713512948e-07,0.08681989063460704,0.3081077560216599,2.730590326989826e-06,idle
1765388269.7102184,Right,0.6617916226387024,0.6223307251930237,-1.2627958767552627e-07,0.009218054672600126,-0.026932402683717483,-1.1907901507275294e-09,0.23201416662780283,-0.2813202343740026,-1.5925575763752075e-06,idle
1765388269.8030019,Left,0.4329356253147125,0.5433922410011292,-1.0133319960914378e-07,-0.03884725384287263,0.007721077597504381,-5.802554946897767e-08,0.015484964065133102,-0.5344737468513187,-2.561529602928428e-06,idle
1765388269.8030019,Right,0.6572446227073669,0.6222676038742065,-1.5089852922756108e-07,-0.04900658337658867,-0.0006803079437355138,-2.653376358109626e-07,-0.627532575812296,0.2829394082060564,-2.8469176624133564e-06,idle
1765388269.907844,Left,0.4331778287887573,0.5437709093093872,-8.497179493360818e-08,0.0023101719197707736,0.0036117933324237047,1.5605745457819997e-07,0.39256550576694926,-0.039194950266441396,2.0419547919386304e-06,idle
1765388269.907844,Right,0.6606212854385376,0.6192641258239746,-1.0509905479239023e-07,0.03220709964979306,-0.02864760995133488,4.368420403450558e-07,0.7746279064271729,-0.2667561892929505,6.697491755173267e-06,idle
1765388270.0182917,Left,0.4345952272415161,0.544069230556488,-8.561081443758667e-08,0.01283321568652847,0.0027010195336869213,-5.785723207537577e-09,0.09527630714901182,-0.008246203866018391,-1.4653384190415782e-06,idle
1765388270.0182917,Right,0.6616376638412476,0.6173117756843567,-1.0018686680268729e-07,0.009202354663022853,-0.0176767022629201,4.4475262296169924e-08,-0.2082864233795291,0.09933129556363367,-3.552513748783174e-06,idle
1765388270.1184158,Left,0.4334210753440857,0.5399909019470215,-7.105633414994372e-08,-0.011726963383823352,-0.0407327283421161,1.453643755780602e-07,-0.24529732591538758,-0.433799044294387,1.5096272277880702e-06,idle
1765388270.1184158,Right,0.6621068120002747,0.61589515209198,-9.370722864332492e-08,0.0046856657086183865,-0.014148674488214101,6.471605556449731e-08,-0.0451108975766565,0.03523654190027045,2.021570139576251e-07,idle
1765388270.206617,Left,0.43347471952438354,0.5401713252067566,-7.233935406247838e-08,0.0006082018040617068,0.0020455854009942074,-1.4546499193723776e-08,0.1398524439932829,0.4850078321416611,-1.8130220647472519e-06,idle
1765388270.206617,Right,0.6633449792861938,0.6159490346908569,-8.327889844395031e-08,0.014037973417526484,0.0006109049231908699,1.182333145067152e-07,0.10603369068398123,0.16733973331992635,6.067628073794619e-07,idle
1765388270.3003213,Left,0.43293774127960205,0.5386528968811035,-6.043566713742621e-08,-0.005730566072300929,-0.01620448115127829,1.2703468919072123e-07,-0.06764655455875292,-0.19476247542252575,1.5109371050257268e-06,idle
1765388270.3003213,Right,0.6609051823616028,0.6204870343208313,-1.252130061857315e-07,-0.026037214012375836,0.04842897634750041,-4.475156627528696e-07,-0.427677492819749,0.5103086026483553,-6.037603806169052e-06,idle
1765388270.4084904,Left,0.4327997863292694,0.5414232015609741,-8.492501990531309e-08,-0.0012753640118670292,0.025610874289719504,-2.2639882888413564e-07,0.041187390229727845,0.3865740181435038,-3.2674172869719335e-06,idle
1765388270.4084904,Right,0.6588998436927795,0.617225706577301,-1.4309703999515477e-07,-0.018538927118277957,-0.03015027749981265,-1.653340677703458e-07,0.06932005870269897,-0.7264483963393841,2.608708496390914e-06,idle
1765388270.5088687,Left,0.4293830990791321,0.5407881140708923,-7.835461701688473e-08,-0.034038114850469224,-0.006326941667438607,6.545642365164976e-08,-0.32639284611631486,-0.3181745849226328,2.9075539779435385e-06,idle
1765388270.5088687,Right,0.66054767370224,0.61866694688797,-1.0806013506226009e-07,0.016416201721070646,0.014358090053370767,3.490486857007197e-07,0.3482340064923631,0.44340638041168745,5.124443051978196e-06,idle
1765388270.6019733,Left,0.426723837852478,0.5509763956069946,-6.419473663754616e-08,-0.028562081795810084,0.10942833583861063,1.520857212371067e-07,0.058815923180487645,1.2432820331022647,9.304513068325503e-07,idle
1765388270.6019733,Right,0.6632189750671387,0.6198278069496155,-9.502409881179119e-08,0.02869140019820286,0.012468342599018205,1.4001495225330707e-07,0.1318430921526253,-0.0202970361932267,-2.2451493418421003e-06,idle
1765388270.7134523,Left,0.4232131540775299,0.5609059929847717,-9.530237576882428e-08,-0.031778271031567044,0.08988147521489631,-2.8158246394053114e-07,-0.029112543246423133,-0.1769357408802331,-3.92551024523604e-06,idle
1765388270.7134523,Right,0.6586600542068481,0.621656596660614,-1.5133699093894393e-07,-0.04126678219883763,0.016553976040383025,-5.097372658164014e-07,-0.6332527289849136,0.03698264359832405,-5.881475921164726e-06,idle
1765388270.7972019,Left,0.4148670732975006,0.5739651322364807,-1.2997399778669205e-07,-0.09847391591768992,0.154082450736318,-4.090842733618321e-07,-0.7869299974076113,0.7574958392995514,-1.504371068436081e-06,idle
1765388270.7972019,Right,0.6614129543304443,0.618064820766449,-1.061211776232085e-07,0.032480976693812676,-0.04237872202765236,5.334933025400295e-07,0.8701366305595982,-0.6953363749175158,1.2308891080579073e-05,idle
1765388270.9064484,Left,0.4077771306037903,0.5855235457420349,-1.4473619103227975e-07,-0.06489858428285536,0.1058012321780482,-1.3512738874440807e-07,0.3073355574313979,-0.44194753995156233,2.507695017335606e-06,idle
1765388270.9064484,Right,0.6617064476013184,0.6200351715087891,-8.396195738669121e-08,0.0026865235163559304,0.018035826133261167,2.0283690352500997e-07,-0.2727268631401107,0.5530113309956555,-3.026700370819449e-06,idle
1765388271.0011747,Left,0.4036937355995178,0.5931928753852844,-1.0982225973066306e-07,-0.04310728874861255,0.08096302392835839,3.6857686224165975e-07,0.2300447710344208,-0.26221019859633127,5.317468569276633e-06,idle
1765388271.0011747,Right,0.6622354388237,0.6181298494338989,-7.878426799834415e-08,0.005584416238161038,-0.020113966137358393,5.465945647692019e-08,0.0305922640818856,-0.4027369650471009,-1.5642689451426997e-06,idle
1765388271.1005292,Left,0.39842885732650757,0.5975704193115234,-9.449526316984702e-08,-0.052990835639021606,0.044059843109211634,1.5426574243086406e-07,-0.09947759124557626,-0.3714293641638942,-2.157034737864e-06,idle
1765388271.1005292,Right,0.6599277257919312,0.6185835599899292,-1.074143440860098e-07,-0.023227059701528354,0.004566582598032746,-2.8816082302824757e-07,-0.2899866068821327,0.24840895338881225,-3.450475422785983e-06,idle
1765388271.2037427,Left,0.3937471807003021,0.6003009676933289,-9.947523693654148e-08,-0.04535912859284515,0.0264553289490401,-4.824922533267182e-08,0.07394094230105198,-0.17056398494848596,-1.962096744005021e-06,idle
1765388271.2037427,Right,0.6606951951980591,0.6197177171707153,-1.0165157959818316e-07,0.007435742846649065,0.010988452538524263,5.583341104562216e-08,0.29708117728906247,0.062219253420195304,3.332839908509567e-06,idle
1765388271.3201349,Left,0.3910626769065857,0.6017287969589233,-7.955330971753938e-08,-0.023064305671632007,0.01226740327417531,1.7116214177926638e-07,0.19154922110871303,-0.12189763165074662,1.8851047447746563e-06,idle
1765388271.3201349,Right,0.660243570804596,0.6187724471092224,-7.584069550148342e-08,-0.003880196811038461,-0.008121425528079576,2.217579732443589e-07,-0.09722254512642246,-0.16418530311167254,1.4255650634359388e-06,idle
1765388271.4145982,Left,0.3890122175216675,0.6024088263511658,-7.369204269025431e-08,-0.021706401688002263,0.007198870290352542,6.20480549045195e-08,0.01437492960806993,-0.053656080059412664,-1.155094422715085e-06,idle
1765388271.4145982,Right,0.6600562930107117,0.6196191906929016,-7.408112168150183e-08,-0.001982544522069216,0.008963726123652224,1.8627053243357257e-08,0.020088767986090286,0.1808654038117991,-2.150367560180211e-06,idle
1765388271.5032482,Left,0.38478851318359375,0.6070238947868347,-5.7793247520976365e-08,-0.04764472534122235,0.052059436562899214,1.7934345504923866e-07,-0.29259252242855005,0.5060414242162512,1.3231293377491997e-06,idle
1765388271.5032482,Right,0.6577672958374023,0.6185961961746216,-1.0442323628012673e-07,-0.025820614536408257,-0.011539702817185504,-3.422686818515991e-07,-0.2689009948589317,-0.23128518528950837,-4.071018423429613e-06,idle
1765388271.5981398,Left,0.3829897940158844,0.6141170263290405,-4.9918032374307586e-08,-0.01895552557260731,0.07474987688565944,8.299174478279978e-08,0.30233672361659963,0.239119718916178,-1.0153876940366571e-06,idle
1765388271.5981398,Right,0.6610991358757019,0.6162012815475464,-8.445130106338183e-08,0.0351120843006603,-0.025238439814675228,2.104711705594265e-07,0.6421298842803389,-0.1443620350135153,5.8249640052034005e-06,idle
1765388271.689574,Left,0.3801562190055847,0.6137327551841736,-5.347962783730509e-08,-0.030990305160585447,-0.0042027050635849005,-3.8952535173994145e-08,-0.13162224067341077,-0.8634903254473716,-1.333682868712632e-06,idle
1765388271.689574,Right,0.6611438989639282,0.6165778040885925,-5.215873244424074e-08,0.0004895659225612316,0.004117959963807324,3.5317807091349473e-07,-0.3786603164077841,0.3210657153046742,1.56075994968141e-06,idle
1765388271.8065228,Left,0.3762279450893402,0.6141562461853027,-2.8924139527930492e-08,-0.033589677464073764,0.0036211645216597116,2.0996777461823722e-07,-0.02222657562706085,0.06689993149474295,2.1284546593359176e-06,idle
1765388271.8065228,Right,0.6588582992553711,0.6182082295417786,-7.113288802429452e-08,-0.01954358546763734,0.013941355992326494,-1.6224320902155037e-07,-0.17129841455380004,0.08399737677032301,-4.407237102164605e-06,idle
1765388271.8962438,Left,0.37411952018737793,0.6179778575897217,-5.569143723960224e-08,-0.02349980202860886,0.04259440843756726,-2.983393890290783e-07,0.11245839252139073,0.4343828018650943,-5.665422422358251e-06,idle
1765388271.8962438,Right,0.6590116620063782,0.6164707541465759,-9.392927324824996e-08,0.001709330165791075,-0.019365322321340785,-2.5408092042181776e-07,0.2368779222117293,-0.3712251481536256,-1.0235925570117405e-06,idle
1765388271.9948792,Left,0.36973246932029724,0.6166441440582275,-5.640181655053311e-08,-0.044477432095661906,-0.01352164696270549,-7.202070028678785e-09,-0.21267843594805227,-0.5689238896842104,2.951650374861077e-06,idle
1765388271.9948792,Right,0.6578176021575928,0.6203194260597229,-8.703314335889445e-08,-0.012105789846437212,0.039019160903731386,6.991533906712567e-08,-0.1400624430521339,0.5919219919625559,3.2847856264445937e-06,idle
1765388272.0948882,Left,0.36749112606048584,0.6156034469604492,-1.523658177404741e-08,-0.022411423517407766,-0.010406038124481485,4.116154483392132e-07,0.22064030639716417,0.03115329563303588,4.187799766753418e-06,idle
1765388272.0948882,Right,0.6548749208450317,0.6192251443862915,-1.2904463631002727e-07,-0.0294241753840579,-0.010941835849218534,-4.200772715222811e-07,-0.17316833163431922,-0.49956518381589265,-4.899486889501919e-06,idle
1765388272.2140572,Left,0.36629289388656616,0.6124664545059204,-1.1526591237043249e-08,-0.01005489855571183,-0.026323897477347345,3.1132178975130985e-08,0.10368909105866005,-0.13357383026495495,-3.192804165061486e-06,idle
1765388272.2140572,Right,0.6566693186759949,0.6177870631217957,-9.870464623418229e-08,0.015057589465239251,-0.012067578841648477,2.5459633703207064e-07,0.37326625246226514,-0.009446609626295446,5.661486012380089e-06,idle
1765388272.3063045,Left,0.3661137521266937,0.6108786463737488,-1.0430216690338057e-08,-0.001952962550944024,-0.017309921608583547,1.1952424901084834e-08,0.08832545587764501,0.09826830616906,-2.090932983442882e-07,idle
1765388272.3063045,Right,0.6560779213905334,0.618757963180542,-9.112451948567468e-08,-0.0064472781335773105,0.010584530691175247,8.263681054482154e-08,-0.23444115494569445,0.2469481244852592,-1.8746634829690355e-06,idle
1765388272.3985608,Left,0.366190642118454,0.6112843155860901,-2.2218475947966e-08,0.0008287761353590593,0.004372597191669579,-1.270624138003585e-07,0.02998359845324872,0.23370992407119737,-1.4984028238132917e-06,idle
1765388272.3985608,Right,0.6579552888870239,0.6196990013122559,-8.613132962409509e-08,0.020235629407290148,0.010143191957402192,5.38202242171798e-08,0.2876077430313176,-0.004757069181398569,-3.1060608154739083e-07,idle
1765388272.5003667,Left,0.365467369556427,0.6111204028129578,-1.762606061106453e-08,-0.0071044250067329425,-0.001610051404550298,4.5109509296676086e-08,-0.07792474861671655,-0.05876522976948611,1.6911778216498275e-06,idle
1765388272.5003667,Right,0.6570913791656494,0.6198029518127441,-1.000386191662983e-07,-0.008485849111837099,0.001021065327103898,-1.3660589490994511e-07,-0.2821199101619173,-0.08960310116735555,-1.8704816879413042e-06,idle
1765388272.600641,Left,0.3628544509410858,0.6109483242034912,8.85916406900833e-09,-0.0260577035101443,-0.0017160784723988958,2.641276800819065e-07,-0.18901427273217827,-0.0010573700542479227,2.1841899415265437e-06,idle
1765388272.600641,Right,0.6569788455963135,0.6188248991966248,-7.42185122248884e-08,-0.0011222570681985158,-0.00975376919071475,2.5749469858311083e-07,0.07343447174979727,-0.1074535737882235,3.930224369836723e-06,idle
1765388272.698585,Left,0.3629704713821411,0.6113675832748413,-8.106375126715193e-09,0.0011845586857088608,0.004280598918713654,-1.7321669034553928e-07,0.2781411448614938,0.06122555839665081,-4.465248260767995e-06,idle
1765388272.6995916,Right,0.6566087603569031,0.6206850409507751,-8.064488099535083e-08,-0.003778538340388552,0.018991886701054266,-6.561267027929334e-08,-0.027120402439763092,0.2934906646904029,-3.2988983382684747e-06,idle
1765388272.7948601,Left,0.36399155855178833,0.6133556962013245,-2.6889723780954e-09,0.010605933032364472,0.020650335432520983,5.6270034987375134e-08,0.09785889820551653,0.1700308596403929,2.3836562764160706e-06,idle
1765388272.7948601,Right,0.6545332074165344,0.6211492419242859,-8.6826688061592e-08,-0.02155856634481324,0.004821610323743768,-6.420982822279845e-08,-0.1846794200671868,-0.14718528131126735,1.4571183879736425e-08,idle
1765388272.9080782,Left,0.3625710606575012,0.6133421063423157,-1.7441358579617372e-08,-0.012546565277728057,-0.00012003259832670347,-1.3030063418189026e-07,-0.2044947286147487,-0.18345453336433806,-1.647887750524514e-06,idle
1765388272.9080782,Right,0.6567463874816895,0.6183338165283203,-8.156069242204467e-08,0.019547940388021167,-0.02486727974544666,4.651197183010947e-08,0.36307373079331917,-0.26222748993466793,9.779516728735002e-07,idle
1765388272.986061,Left,0.3610706031322479,0.6130515933036804,2.0119912846894294e-08,-0.019240852502721013,-0.003725342725416101,4.816603410417617e-07,-0.08584301184080192,-0.04623205869835139,7.847373660052049e-06,idle
1765388272.986061,Right,0.6564015746116638,0.6198816299438477,-8.079882718448061e-08,-0.004421647038681195,0.019848112411490627,9.76964453588636e-09,-0.3073697778618564,0.5733999467580521,-4.711587553639712e-07,idle
1765388273.1020966,Left,0.36350390315055847,0.6149240136146545,3.1986984172505117e-09,0.02097031363008745,0.016136621408376618,-1.458279582958952e-07,0.34654204532575916,0.17117150127848507,-5.407728737641224e-06,idle
1765388273.1020966,Right,0.6541764140129089,0.6218621730804443,-8.407435103663374e-08,-0.019176556644092315,0.017068429877046487,-2.822864503579557e-08,-0.127158623959527,-0.023955457239441275,-3.274713531947856e-07,idle
1765388273.197402,Left,0.3619953393936157,0.6150021553039551,-9.812027634836795e-09,-0.01582872617201181,0.0008199079401611047,-1.3651608626400661e-07,-0.3861168755643771,-0.16071184411515033,9.770556389362682e-08,idle
1765388273.197402,Right,0.6558752655982971,0.6208645105361938,-7.557111558753604e-08,0.01782533646870466,-0.010468054235252914,8.922087971454516e-08,0.3882453301910662,-0.28892876734415823,1.2323485552070173e-06,idle
1765388273.294837,Left,0.36280250549316406,0.6153749227523804,2.0524522525988687e-08,0.008284149635893821,0.003825806514760003,3.1135167979639165e-07,0.24747653730278027,0.03085029660714328,4.596580051136835e-06,idle
1765388273.294837,Right,0.6555353999137878,0.6213449835777283,-9.11038711137735e-08,-0.003488127398011119,0.0049312162320883255,-1.5941659481129084e-07,-0.21874546518974006,0.15804660392258638,-2.551829227237521e-06,idle
1765388273.4018219,Left,0.36267155408859253,0.6139186024665833,5.446858075686123e-09,-0.0012356469233122762,-0.013741721109371344,-1.422716293094367e-07,-0.0898280348151296,-0.1657657779997584,-4.2803530674095445e-06,idle
1765388273.4018219,Right,0.6578795909881592,0.6186802387237549,-8.337292456417345e-08,0.02211959847380451,-0.025144318161366377,7.294858997168458e-08,0.24163244212663954,-0.2837903240659356,2.1925791983783566e-06,idle
1765388273.504062,Left,0.3622969388961792,0.6136375665664673,8.372261994793462e-09,-0.003628342289209766,-0.002721978344252036,2.833405309682643e-08,-0.023174494673732775,0.10673191984904935,1.6524044533974656e-06,idle
1765388273.504062,Right,0.6551410555839539,0.6232942938804626,-8.579319654700157e-08,-0.026524134682218408,0.04468951550517378,-2.3441588500756128e-08,-0.47113976605705027,0.6763768716309333,-9.335888343528607e-07,idle
1765388273.597501,Left,0.3624627888202667,0.6136553287506104,-7.044361982622149e-09,0.0017749520300475617,0.00019009369450284758,-1.649911398859188e-07,0.057826907510967474,0.031165453980581775,-2.0689966886145367e-06,idle
1765388273.597501,Right,0.6556110382080078,0.6216137409210205,-9.56341565938601e-08,0.005029828124681051,-0.017985542672844926,-1.0531950562467826e-07,0.3376954837229522,-0.6707583519164929,-8.762703752488698e-07,idle
1765388273.7020416,Left,0.36308738589286804,0.6128116846084595,1.7021530851479838e-08,0.005974684987741605,-0.008070015394264211,2.3020621603887405e-07,0.04017322935945711,-0.07901341830538122,3.7803246496260505e-06,idle
1765388273.7020416,Right,0.6527566313743591,0.62108314037323,-1.2572334640026384e-07,-0.02730429328924112,-0.005075545926221564,-2.8782304387196173e-07,-0.30929730265784694,0.12349267573829603,-1.7457673082495785e-06,idle
1765388273.79828,Left,0.3630911707878113,0.6142333745956421,4.50453683242813e-08,3.932833398983781e-05,0.014772589327962384,2.911919237749281e-07,-0.06167349221796358,0.23735443154604052,6.336942817225746e-07,idle
1765388273.79828,Right,0.6553224921226501,0.6206876039505005,-9.738365491784862e-08,0.026661513725898235,-0.004109965737898641,2.944739202816778e-07,0.5607514380589939,0.010033213790566623,6.0505693898904925e-06,idle
1765388273.889124,Left,0.36547473073005676,0.6210403442382812,2.8286974540492338e-08,0.026237970012623776,0.07493038551073808,-1.8447458600288475e-07,0.2883918136700576,0.6622105130623311,-5.23608548640154e-06,idle
1765388273.889124,Right,0.6561022996902466,0.6223360300064087,-7.521357758832892e-08,0.008584037351683739,0.01814569571185244,2.440458130880851e-07,-0.1989949044720541,0.24498791382588836,-5.551071491377634e-07,idle
1765388274.000323,Left,0.3664098083972931,0.6239267587661743,-2.1155601714895056e-08,0.008409036820089064,0.02595716579867625,-4.4463092080942096e-07,-0.16033337222355154,-0.4404100559627184,-2.339553467075456e-06,idle
1765388274.000323,Right,0.6540622711181641,0.6224308609962463,-1.1355685103353608e-07,-0.018345722476056113,0.0008528032624146929,-3.4481627516187967e-07,-0.2421759709189876,-0.15551282468647618,-5.2955633051142045e-06,idle
1765388274.0904267,Left,0.36583375930786133,0.6278915405273438,-4.240085615947464e-08,-0.006393184307873053,0.04400246611734696,-2.3578689702615338e-07,-0.1642799712265918,0.2002727422796287,2.3178204082595203e-06,idle
1765388274.0904267,Right,0.6551845669746399,0.6190230250358582,-6.127194041027906e-08,0.012455612533803272,-0.03782129645799927,5.802753207454697e-07,0.3418434561554851,-0.42921801629365625,1.0266974087458733e-05,idle
1765388274.1906621,Left,0.36626315116882324,0.629175066947937,-1.5105792172676047e-08,0.004329753653605283,0.012942381340468653,2.7522855872834893e-07,0.10812426605405925,-0.3131929777213615,5.152801526431528e-06,idle
1765388274.1906621,Right,0.6549749970436096,0.6205641031265259,-8.804500595260834e-08,-0.0021131890402659877,0.015539392103548667,-2.699650107257058e-07,-0.1469038600374676,0.5380601200513867,-8.573360411124358e-06,idle
1765388274.283506,Left,0.36552509665489197,0.6256608963012695,-2.4487714966880958e-08,-0.007859429665324444,-0.03742186587588924,-9.99066612760041e-08,-0.12980074935466732,-0.5363211675727739,-3.9947575971126246e-06,idle
1765388274.283506,Right,0.6571921110153198,0.618241012096405,-6.857271728222258e-08,0.02360970767301218,-0.024738241163417742,2.073574246062285e-07,0.27391919389472136,-0.4289103579372344,5.0829336280192985e-06,idle
1765388274.4111981,Left,0.36621129512786865,0.6260500550270081,-3.5816579924130565e-08,0.005395900943210515,0.003060137872592526,-8.90841870328743e-08,0.1042328914299278,0.31832901239479494,8.51021989644675e-08,idle
1765388274.4111981,Right,0.6581777334213257,0.6169458627700806,-5.633192046161639e-08,0.007750411986703938,-0.010184367565257006,9.625513566568584e-08,-0.12470909208116636,0.11444394496393821,-8.736494896098244e-07,idle
1765388274.4997563,Left,0.3667107820510864,0.625665009021759,-5.2982969123149815e-08,0.0056071664672710094,-0.004322469615581232,-1.927073510969524e-07,0.002371635586715772,-0.08287606186371278,-1.1632583432405382e-06,idle
1765388274.5002787,Right,0.6550800800323486,0.6187331080436707,-6.37540651382551e-08,-0.034773799678290494,0.020063351613498953,-8.331990050505834e-08,-0.47737052285377424,0.33955643042251227,-2.0158828477208595e-06,idle
1765388274.5880852,Left,0.36734241247177124,0.6212154030799866,-3.285073191250376e-08,0.00715089694934652,-0.05037546089106506,2.2792371763387187e-07,0.017477083486445194,-0.5213811495385068,4.7621034828032196e-06,idle
1765388274.5880852,Right,0.6555955410003662,0.6191732883453369,-5.8138535763418986e-08,0.005835704144375645,0.0049834268161672215,6.357526578904177e-08,0.4597536272637617,-0.17072481739036507,1.6630487736599996e-06,idle
1765388274.6788945,Left,0.3719830811023712,0.6152056455612183,-1.5374787665223266e-08,0.051103425732904155,-0.06617994549493018,1.9244653950605586e-07,0.48400887226750255,-0.1740402880470327,-3.906776117805808e-07,idle
1765388274.6788945,Right,0.6571762561798096,0.6139405965805054,-3.6705042560924994e-08,0.017406965936956852,-0.05762283331845559,2.3602739502836407e-07,0.12742368928348027,-0.6894253005069523,1.8990570714210872e-06,idle
1765388274.800697,Left,0.375712513923645,0.6062765717506409,-5.178255690907463e-08,0.030618671421888243,-0.07330776292532254,-2.989080584378681e-07,-0.1681799864658446,-0.058519434540142495,-4.0340249327618825e-06,idle
1765388274.800697,Right,0.6574106216430664,0.6141337752342224,-5.1430195213697516e-08,0.0019241422103559174,0.0015859981952603072,-1.2089361367243857e-07,-0.12711409886876335,0.48610495061101716,-2.9303241572390445e-06,idle
1765388274.9012132,Left,0.37558597326278687,0.6039156317710876,-9.012606483338459e-08,-0.001258909617049538,-0.023488181785837118,-3.814664041579359e-07,-0.31713911612315343,0.4956379189783282,-8.213446546734738e-07,idle
1765388274.9012132,Right,0.6540854573249817,0.6112036108970642,-5.070136310791895e-08,-0.033080918891353076,-0.02915119961100108,7.250900548145635e-09,-0.34825334218655923,-0.30579383462231136,1.2748658038483694e-06,idle
1765388274.9929147,Left,0.37620919942855835,0.6060088872909546,-8.487344160812427e-08,0.006796247764050085,0.022826838678813594,5.7279573308483795e-08,0.08784105730317317,0.5050628031401222,4.784501248677446e-06,idle
1765388274.9929147,Right,0.6363429427146912,0.624921441078186,-2.814155948271946e-07,-0.19348116602188112,0.1495921991347394,-2.5159262681400136e-06,-1.7491560540698505,1.9491871342736133,-2.751511109898868e-05,idle
1765388275.0870876,Left,0.37377893924713135,0.5946193933486938,-5.2784699278163316e-08,-0.02580634952783615,-0.12094230233676802,3.4074265249632785e-07,-0.34619915499569004,-1.526649999337244,3.010026397857898e-06,idle
1765388275.0870876,Right,0.6411808133125305,0.6527069807052612,-3.8672027358188643e-07,0.051372186637636395,0.295047975898124,-1.1182051072673208e-06,2.6000389794000482,1.5445599794976355,1.4842065510349576e-05,idle
1765388275.1820264,Left,0.3818754255771637,0.5952508449554443,-3.3001452237613194e-08,0.08528115127498104,0.006651146905339501,2.0837904429201145e-07,1.1700964559878135,1.3439553656937147,-1.3941999571719808e-06,idle
1765388275.1820264,Right,0.6524401903152466,0.641611635684967,-5.954089843385191e-08,0.1185962149863637,-0.11686844867680223,3.4462151418147118e-06,0.7080778373769604,-4.338759492067623,4.807752374022673e-05,idle
1765388275.2985668,Left,0.38192254304885864,0.6115024089813232,-1.1804380761759603e-07,0.0004043015020273892,0.13945000675114463,-7.297240445896399e-07,-0.7283038884753841,1.1395089034232393,-8.049593372644087e-06,idle
1765388275.2985668,Right,0.6690672636032104,0.6423259377479553,-1.662626658571753e-07,0.14267214395895303,0.0061292209997422294,-9.157488574009219e-07,0.2065886367872884,1.055407703495884,-3.7428761205398723e-05,idle
1765388275.39062,Left,0.38192254304885864,0.6115024089813232,-1.1804380761759603e-07,0.0004043015020273892,0.13945000675114463,-7.297240445896399e-07,-0.7283038884753841,1.1395089034232393,-8.049593372644087e-06,idle
1765388275.39062,Right,0.6627469658851624,0.6675732135772705,-2.3618275690751034e-07,-0.06865920398654231,0.27426838712350976,-7.595619713409888e-07,-2.295752949407232,2.912872545719058,1.6967028688204886e-06,idle
1765388275.503115,Left,0.38332444429397583,0.6887140274047852,-1.4173024531771716e-08,0.006853650093188661,0.37747410357636985,5.078060987928079e-07,0.03152973772351826,1.1636581956605547,6.05006851378315e-06,idle
1765388275.503115,Right,0.6594445109367371,0.6933035254478455,-2.2058701176774775e-07,-0.029356474044057494,0.22872415956323994,1.3863507437443946e-07,0.3493732963616407,-0.4048557679393138,7.984332465024867e-06,idle
1765388275.5876806,Left,0.37552422285079956,0.6846760511398315,-5.975324057772013e-08,-0.09223866205799928,-0.047749609522574385,-5.389921523408506e-07,-1.1717798474881904,-5.028327292668481,-1.2378529357482528e-05,idle
1765388275.5876806,Right,0.6650485992431641,0.6973597407341003,-1.8012649150023208e-07,0.06626909392321269,0.04796528838942864,4.784510648618868e-07,1.1307851337417412,-2.1374978330611776,4.018369547174359e-06,idle
1765388275.6903865,Left,0.3762347400188446,0.6722145080566406,-2.3290912309903433e-08,0.00691797437206927,-0.12133223455127908,3.5501668903620565e-07,0.9654419351065098,-0.7164397104981572,8.704547238551354e-06,idle
1765388275.6903865,Right,0.664785623550415,0.6704791188240051,-1.444353188162495e-07,-0.002560471702493152,-0.26172408189795254,3.4750830668350176e-07,-0.6701613873024758,-3.0153009994750084,-1.2749285816394289e-06,idle
1765388275.7859018,Left,0.3707455098628998,0.6609951257705688,1.4395309833048486e-08,-0.057469672008387,-0.11746168438919674,3.945571171660721e-07,-0.6741085386753863,0.040522849650598027,4.139697864979568e-07,idle
1765388275.7859018,Right,0.6633520126342773,0.6646806001663208,-1.6204799635488598e-07,-0.015009235684688732,-0.06070777794418651,-1.8439649506018966e-07,-0.13033273567365297,2.104546672004634,-5.568794462515031e-06,idle
1765388275.890548,Left,0.3707455098628998,0.6609951257705688,1.4395309833048486e-08,-0.057469672008387,-0.11746168438919674,3.945571171660721e-07,-0.6741085386753863,0.040522849650598027,4.139697864979568e-07,idle
1765388275.890548,Right,0.6541790962219238,0.6876875758171082,-1.341989701586499e-07,-0.08765646430540557,0.21985484760251345,2.661255222410058e-07,-0.6942175112271246,2.681058745781731,4.305192084294727e-06,idle
1765388275.9901407,Left,0.38456469774246216,0.7087844014167786,2.7331575225275628e-08,0.0679124793931661,0.23485375738594622,6.357347946426318e-08,0.6161731678836149,1.731405303117299,-1.6265731149181739e-06,idle
1765388275.9901407,Right,0.6593477725982666,0.7053176164627075,-1.605940269655548e-07,0.05229387231312159,0.17837121678112508,-2.670509101083519e-07,1.4159418196126383,-0.4197089419619128,-5.394390796308963e-06,idle
1765388276.0886366,Left,0.3817656338214874,0.6906356811523438,1.773257451986865e-08,-0.028202268648971972,-0.18285937691426266,-9.67157608038073e-08,-0.9684144492379748,-4.208713471479506,-1.6150114263934129e-06,idle
1765388276.0886366,Right,0.6615309119224548,0.6932687163352966,-9.642484855021394e-08,0.021996454335151808,-0.12139998510628587,6.465434372870808e-07,-0.30526488329975177,-3.020376885823287,9.205017801971383e-06,idle
1765388276.1946068,Left,0.38321366906166077,0.679427981376648,-1.322863596442403e-08,0.013664558542627077,-0.10576280567236107,-2.9216918309430923e-07,0.39508134559292435,0.7275310585981826,-1.8444197055077642e-06,idle
1765388276.1946068,Right,0.6653810143470764,0.6901876926422119,-5.697836868989725e-08,0.036331954165738596,-0.02907445030159448,3.722414471676346e-07,0.13527866673287905,0.8712410032003355,-2.5884836904228933e-06,idle
1765388276.2869089,Left,0.3866286873817444,0.6985116004943848,-1.141826757589115e-07,0.03699827970543184,0.2067517687262846,-1.093735216512188e-06,0.25279733847192554,3.3857802658411416,-8.684159652192452e-06,idle
1765388276.2869089,Right,0.6629912257194519,0.6927038431167603,-2.017522593433796e-09,-0.02589094985573806,0.027259953040607732,5.954453435184959e-07,-0.6741224178892441,0.6103264511454737,2.418189132387781e-06,idle
1765388276.382514,Left,0.3811831474304199,0.7270514965057373,-2.0821623536448897e-07,-0.05695865555103904,0.29851844278136747,-9.835618101579612e-07,-0.9827603432792685,0.9598508917920342,1.1523795912816272e-06,idle
1765388276.382514,Right,0.6668222546577454,0.7192027568817139,-5.257125579305466e-08,0.040071372105028216,0.27717040277109306,-5.287763384117651e-07,0.6899453882431286,2.613985638162813,-1.1759009412556259e-05,idle
1765388276.4897754,Left,0.36801669001579285,0.7186716794967651,-1.6445413564269984e-07,-0.12275110194337689,-0.07812517365471774,4.0799478516049367e-07,-0.6133840743857196,-3.511454714166753,1.2973505333496137e-05,idle
1765388276.4897754,Right,0.6720104217529297,0.7153509855270386,-5.698061755765593e-08,0.048369368308041796,-0.035910128543389784,-4.110855322939799e-08,0.07736235691692507,-2.9188550120684984,4.546534890009143e-06,idle
1765388276.5947886,Left,0.36603832244873047,0.7060418725013733,-1.5843551182115334e-07,-0.018839239698767416,-0.12026883441516426,5.7313058866603925e-08,0.9895130272876002,-0.4013180058488884,-3.339408313005281e-06,idle
1765388276.5947886,Right,0.6725633144378662,0.7035995125770569,-6.016084341808892e-08,0.005264986139396128,-0.11190479433860741,-3.0284077781298753e-08,-0.4104665893548728,-0.7236682144307945,1.0307735072859421e-07,idle
1765388276.6843464,Left,0.3688170313835144,0.6987124085426331,-1.6814146874821745e-07,0.031211503647445717,-0.08232729531991473,-1.0902095798478008e-07,0.5621887700984305,0.42617363446638423,-1.868326224695048e-06,idle
1765388276.6843464,Right,0.6795540452003479,0.7005670070648193,-1.596678345094915e-08,0.07852251668398445,-0.03406224224181333,4.964043000664525e-07,0.8228561304759594,0.8743568166791421,5.915961913276313e-06,idle
1765388276.7816958,Left,0.3586210608482361,0.7154917120933533,-2.7019345338885614e-07,-0.10416920401233515,0.17142916299259015,-1.0426348302117958e-06,-1.3831444987753743,2.592554400186032,-9.538455764290561e-06,idle
1765388276.7816958,Right,0.6849172711372375,0.7034278512001038,-4.311536727641396e-08,0.054794487180111755,0.02922839521208962,-2.773690211614199e-07,-0.2424222331407661,0.6466216533477251,-7.905412307675735e-06,idle
1765388276.8788965,Left,0.3596063256263733,0.7085195183753967,-2.494647617368173e-07,0.010136402993458249,-0.07172992158238264,2.132567577514063e-07,1.1759759637538105,-2.5016204044483583,1.2920611326183463e-05,idle
1765388276.8788965,Right,0.6808108687400818,0.6998394727706909,-3.4478986776775855e-08,-0.04224666351066622,-0.03691723347944144,8.885107342889829e-08,-0.9983592554788892,-0.6805061578884971,3.7676719450869413e-06,idle
1765388276.9723392,Left,0.3591129779815674,0.7063164710998535,-2.3561517537018517e-07,-0.005279682185713156,-0.023576456840176868,1.4821478360998513e-07,-0.1649790591904598,0.5153262464236775,-6.960628186097395e-07,idle
1765388276.9723392,Right,0.6779530644416809,0.6938995122909546,-9.953015300823154e-09,-0.030583501519415607,-0.063567960359965,2.624707669169879e-07,0.12481622085885999,-0.28520936388125206,1.8580342126872303e-06,idle
1765388277.0905356,Left,0.35957610607147217,0.693393349647522,-2.407363410839025e-07,0.003918289790056318,-0.10933591795897948,-4.332756264766964e-08,0.07781933436447622,-0.7255669181535088,-1.620541781128198e-06,idle
1765388277.0905356,Right,0.6791380047798157,0.694042444229126,-1.4384691660040971e-08,0.010025173877261212,0.001209273991834627,-3.749414602497363e-08,0.34356922342417817,0.5480470339014075,-2.537849638956819e-06,idle
1765388277.1778557,Left,0.3619668185710907,0.6974096894264221,-2.6785252771333035e-07,0.027378722556089197,0.04599559859875985,-3.1053777927069894e-07,0.2686716532621503,1.7788749156285029,-3.0601230328790083e-06,idle
1765388277.1778557,Right,0.6779247522354126,0.6984241604804993,-9.293077418703888e-09,-0.013894311762280646,0.050179933214470014,5.8309769032639435e-08,-0.2739287811118534,0.560817786521491,1.0971577764235796e-06,idle
1765388277.2740662,Left,0.3616703748703003,0.7019674181938171,-2.7946697400693665e-07,-0.003081199694698862,0.047372477300662144,-1.2071913917731778e-07,-0.316596719341445,0.014311109410073916,1.9729518095491577e-06,idle
1765388277.2740662,Right,0.6758347749710083,0.700279951095581,-9.084105911938423e-09,-0.021722968954442725,0.019288861464652474,2.1720243713384125e-09,-0.08137010867856691,-0.32107803468475354,-5.834888757976327e-07,idle
1765388277.3787029,Left,0.36150527000427246,0.7011808156967163,-2.6201573177786486e-07,-0.0015778872488481992,-0.007517464990270645,1.6677941269866512e-07,0.014366975343674593,-0.524576544075184,2.7475889111043217e-06,idle
1765388277.3787029,Right,0.6777926087379456,0.7005031108856201,-1.493704360200354e-08,0.01871078067253314,0.002132711140681465,-5.593581807516186e-08,0.38642045806675973,-0.16395925502857947,-5.553296269230308e-07,idle
1765388277.4876928,Left,0.3584275543689728,0.6988483667373657,-2.57263337744007e-07,-0.02841349307319478,-0.02153318571409705,4.387413619808447e-08,-0.24774650765642026,-0.12939323540314573,-1.1346624043024362e-06,idle
1765388277.4876928,Right,0.6773442625999451,0.6986902356147766,-1.927871018381211e-08,-0.004139134798667025,-0.016736477652413928,-4.008229738103372e-08,-0.2109505854009199,-0.17420048782941433,1.463598180617809e-07,idle
1765388277.5788782,Left,0.36055734753608704,0.6979084610939026,-2.5700293804220564e-07,0.02318609612898872,-0.010232328161256665,2.83485392438695e-09,0.5617414188060317,0.12302733129489307,-4.467761276330575e-07,idle
1765388277.5788782,Right,0.6758206486701965,0.6975259780883789,-1.733894272604175e-08,-0.016586896598265132,-0.012674745765351412,2.111737207077572e-08,-0.13551315974371886,0.04421824026753391,6.662531558849083e-07,idle
1765388277.6819258,Left,0.35817191004753113,0.6985611319541931,-2.701277139749436e-07,-0.02326353285296094,0.0063650504670028805,-1.279969219750295e-07,-0.452991317112063,0.16186283012819275,-1.2759124191889148e-06,idle
1765388277.6819258,Right,0.6783266663551331,0.7006399035453796,-1.3347410288133688e-08,0.024439468660700375,0.030367975483801962,3.8926673387340444e-08,0.4001019522072253,0.41976608679303523,1.736818794262333e-07,idle
1765388277.7702267,Left,0.3748626708984375,0.7016142010688782,-2.2226758744636754e-07,0.1879404468832804,0.03437801181773519,5.389121351638368e-07,2.37818818984522,0.31543010662062154,7.509495064293569e-06,idle
1765388277.7702267,Right,0.6663726568222046,0.7021592259407043,9.73381588664779e-08,-0.13460392331626805,0.017107795893055135,1.2463359529423904e-06,-1.7908522223156174,-0.1493115922215242,1.35956078693844e-05,idle
1765388277.8841436,Left,0.6470478773117065,0.6994022130966187,5.784731627045403e-08,2.400444710780294,-0.019507874429655795,2.4703779749765126e-06,19.51242768788305,-0.47522821806803556,1.703390503961325e-05,firing
1765388277.8841436,Right,0.6663726568222046,0.7021592259407043,9.73381588664779e-08,-0.13460392331626805,0.017107795893055135,1.2463359529423904e-06,-1.7908522223156174,-0.1493115922215242,1.35956078693844e-05,idle
