time,hand,pos_x,pos_y,pos_z,vel_x,vel_y,vel_z,acc_x,acc_y,acc_z,state
1765389433.4104443,Left,0.40548375248908997,0.5349974632263184,-7.766560372601816e-08,-0.03316661630801061,0.11972962522917456,-2.6186425504223106e-08,0.21917441169668248,1.3554557317156268,-2.2293441040243648e-06,retracting
1765389433.4104443,Right,0.6361309289932251,0.5688775181770325,-1.7652021711000998e-07,0.004803703665768746,0.013683257709995596,-2.222010339463807e-08,0.4557208697961501,-0.16128130952950723,2.593017049924739e-06,idle
1765389433.5315254,Left,0.40467575192451477,0.548711895942688,-1.1347602679734337e-07,-0.006673217144398652,0.11326648958060534,-2.957556463012805e-07,0.21880703215221453,-0.05337856123811212,-2.226352337725004e-06,retracting
1765389433.5315254,Right,0.6368650197982788,0.5692470669746399,-1.6697865135029133e-07,0.006062801884804795,0.0030520762979692863,7.880308876471835e-08,0.01039879944411998,-0.08780214417454646,8.343431025374711e-07,idle
1765389433.6381798,Left,0.40284204483032227,0.5469432473182678,-9.018932445314931e-08,-0.017192980299145396,-0.016582987027793115,2.183379318887884e-07,-0.0986341173266186,-1.2174787894168255,4.820181363606105e-06,idle
1765389433.6381798,Right,0.6378505825996399,0.5682044625282288,-1.5407250941734674e-07,0.009240713460201501,-0.009775540359591453,1.21008990309221e-07,0.029796346036541937,-0.12027273122131357,3.957258146955314e-07,idle
1765389433.7222762,Left,0.40043938159942627,0.540673017501831,-7.516982947208817e-08,-0.028570335047600686,-0.07455999841236541,1.7859848119232684e-07,-0.13528938760075815,-0.6894110747672616,-4.7254621721668243e-07,idle
1765389433.7222762,Right,0.6369666457176208,0.5690047144889832,-1.5931311736494536e-07,-0.010510991534505536,0.009515884851130906,-6.231665053623684e-08,-0.2348697154905499,0.22939647751238532,-2.179945534779594e-06,idle
1765389433.8085096,Left,0.4020193815231323,0.5445030927658081,-4.8849610578827196e-08,0.01832237087663711,0.044415229658629374,3.0522078190069386e-07,0.5437883486333681,1.3796888348804794,1.4683676372527409e-06,idle
1765389433.8085096,Right,0.6367827653884888,0.5682570934295654,-1.7033237043051486e-07,-0.0021323568037734074,-0.00866974113119282,-1.2778408303799788e-07,0.09716231670205257,-0.21088848098826432,-7.591890104810109e-07,idle
1765389433.9311476,Left,0.39973384141921997,0.542412519454956,-8.661240258334146e-08,-0.01863647763039459,-0.017046702735909764,-3.079208399138036e-07,-0.30136542004552475,-0.5011655346720526,-4.999606044824817e-06,idle
1765389433.9311476,Right,0.6364810466766357,0.5696585774421692,-1.722682867466574e-07,-0.002460238616900702,0.011427813235714382,-1.5785617175715887e-08,-0.002673574646666701,0.16387707296991208,9.132444887350676e-07,idle
1765389434.037869,Left,0.400579571723938,0.5427184104919434,-6.945030861515988e-08,0.007924655177806274,0.002866257690640764,1.6081211240537746e-07,0.24888290920010211,0.1865882587739713,4.392117672599091e-06,idle
1765389434.037869,Right,0.6377761960029602,0.5685033798217773,-1.6198816865653498e-07,0.012135797614951902,-0.010824423285718754,9.632667837119892e-08,0.1367676592111297,-0.20850772448805707,1.050513713940796e-06,idle
1765389434.1198533,Left,0.4001074433326721,0.5408303737640381,-8.160211706353948e-08,-0.005758767197782864,-0.023029252588937003,-1.482211982605843e-07,-0.16690299797195723,-0.3158594524850426,-3.7694214654488103e-06,idle
1765389434.1198533,Right,0.636509895324707,0.5678055882453918,-1.608048307844001e-07,-0.015445651952644482,-0.008511284886307787,1.4433716438177485e-08,-0.3364236296218241,0.028214413250480613,-9.988861327417855e-07,idle
1765389434.210424,Left,0.4010370373725891,0.541034996509552,-6.905348470809258e-08,0.010263740487152557,0.0022592601367270276,1.3855070109581775e-07,0.17690610499855314,0.27921299059258964,3.1662771356244575e-06,idle
1765389434.210424,Right,0.6358788013458252,0.5684012770652771,-1.7085699255403597e-07,-0.006967971548985077,0.0065770596581561066,-1.1098692042779387e-07,0.09360291467009474,0.16659191661658015,-1.3847817576806715e-06,idle
1765389434.3065577,Left,0.4003542959690094,0.5389337539672852,-8.77055512660263e-08,-0.007101997946499874,-0.021857499987599636,-1.94022125650914e-07,-0.18064151089798997,-0.25086684355330874,-3.4594819066677346e-06,idle
1765389434.3065577,Right,0.636337161064148,0.5693057775497437,-1.7890083370275534e-07,0.004767939605271642,0.009408775488946317,-8.367347142073001e-08,0.12207904263726849,0.029456013521223724,2.841193719070369e-07,idle
1765389434.4267771,Left,0.4021504521369934,0.531326174736023,-1.2165592977453343e-07,0.014940642991291794,-0.06328075884950926,-2.8240333093316333e-07,0.1833533379262992,-0.3445636483192288,-7.35165493290178e-07,idle
1765389434.4267771,Right,0.6345219612121582,0.5687679052352905,-1.6635709698675782e-07,-0.015099050644835663,-0.004474086590234354,1.0434031037558772e-07,-0.16525601388629962,-0.1154793161750443,1.5639212454528777e-06,idle
1765389434.5360205,Left,0.4021504521369934,0.531326174736023,-1.2165592977453343e-07,0.014940642991291794,-0.06328075884950926,-2.8240333093316333e-07,0.1833533379262992,-0.3445636483192288,-7.35165493290178e-07,idle
1765389434.5360205,Right,0.6355763077735901,0.5737892389297485,-1.441753596509443e-07,0.0096513531209079,0.04596464426014841,2.0304877702870364e-07,0.22656201989583868,0.4617096694907984,9.035646366587313e-07,idle
1765389434.6279004,Left,0.4021504521369934,0.531326174736023,-1.2165592977453343e-07,0.014940642991291794,-0.06328075884950926,-2.8240333093316333e-07,0.1833533379262992,-0.3445636483192288,-7.35165493290178e-07,idle
1765389434.6279004,Right,0.62496018409729,0.575937807559967,-1.4383385860128328e-07,-0.11627431779605693,0.023532445488967227,3.740329595501794e-09,-1.379215420367435,-0.24569124176722892,-2.1829487356126604e-06,idle
1765389434.7066336,Left,0.4021504521369934,0.531326174736023,-1.2165592977453343e-07,0.014940642991291794,-0.06328075884950926,-2.8240333093316333e-07,0.1833533379262992,-0.3445636483192288,-7.35165493290178e-07,idle
1765389434.7066336,Right,0.6271283030509949,0.573323130607605,-1.7621373160636722e-07,0.027337044908658573,-0.03296753674249143,-4.0826636424356785e-07,1.8107448693919461,-0.7123882889176889,-5.194846654008787e-06,idle
1765389434.8267832,Left,0.4021504521369934,0.531326174736023,-1.2165592977453343e-07,0.014940642991291794,-0.06328075884950926,-2.8240333093316333e-07,0.1833533379262992,-0.3445636483192288,-7.35165493290178e-07,idle
1765389434.8267832,Right,0.6296694278717041,0.5796781778335571,-2.0378453768898908e-07,0.021149671392059435,0.05289278173765339,-2.2947062021884412e-07,-0.051497240745332476,0.7146116974158743,1.4881092032961496e-06,idle
1765389434.918973,Left,0.4021504521369934,0.531326174736023,-1.2165592977453343e-07,0.014940642991291794,-0.06328075884950926,-2.8240333093316333e-07,0.1833533379262992,-0.3445636483192288,-7.35165493290178e-07,idle
1765389434.918973,Right,0.6314617395401001,0.5830543041229248,-1.7930111084751843e-07,0.019441542185625025,0.03662147763479125,2.6557634153724006e-07,-0.018528399167937356,-0.17649789972858418,5.36986761876058e-06,idle
1765389435.018059,Left,0.4021504521369934,0.531326174736023,-1.2165592977453343e-07,0.014940642991291794,-0.06328075884950926,-2.8240333093316333e-07,0.1833533379262992,-0.3445636483192288,-7.35165493290178e-07,idle
1765389435.018059,Right,0.632402241230011,0.58147132396698,-1.580346378204922e-07,0.00949176726492251,-0.01597581310740934,2.1462631559695617e-07,-0.10041550047041303,-0.5308243970701783,-5.141998079905208e-07,idle
1765389435.106373,Left,0.4021504521369934,0.531326174736023,-1.2165592977453343e-07,0.014940642991291794,-0.06328075884950926,-2.8240333093316333e-07,0.1833533379262992,-0.3445636483192288,-7.35165493290178e-07,idle
1765389435.106373,Right,0.6327080130577087,0.5784974098205566,-1.4910757784036832e-07,0.0034623234417519764,-0.03367430132607663,1.0108311569390506e-07,-0.06827275372904912,-0.20040397803958004,-1.2856752881251535e-06,idle
1765389435.2218158,Left,0.4021504521369934,0.531326174736023,-1.2165592977453343e-07,0.014940642991291794,-0.06328075884950926,-2.8240333093316333e-07,0.1833533379262992,-0.3445636483192288,-7.35165493290178e-07,idle
1765389435.2218158,Right,0.6355431079864502,0.5792865753173828,-1.5352534887824731e-07,0.024558448746597496,0.006835989938083692,-3.8268067325744235e-08,0.18274101046797572,0.3509123809699933,-1.207102044898714e-06,idle
1765389435.3226407,Left,0.4021504521369934,0.531326174736023,-1.2165592977453343e-07,0.014940642991291794,-0.06328075884950926,-2.8240333093316333e-07,0.1833533379262992,-0.3445636483192288,-7.35165493290178e-07,idle
1765389435.3226407,Right,0.635357677936554,0.5794145464897156,-1.464091639036269e-07,-0.001839130743219277,0.001269242592636383,7.057968526990538e-08,-0.26181624830205596,-0.05521206615904616,1.0795728537041394e-06,idle
1765389435.407962,Left,0.4021504521369934,0.531326174736023,-1.2165592977453343e-07,0.014940642991291794,-0.06328075884950926,-2.8240333093316333e-07,0.1833533379262992,-0.3445636483192288,-7.35165493290178e-07,idle
1765389435.407962,Right,0.6352617740631104,0.5792794823646545,-1.4571682527275698e-07,-0.0011240303579013256,-0.0015830035991326315,8.11447557958402e-09,0.008381252114045069,-0.03342942461695377,-7.321163315252543e-07,idle
1765389435.511848,Left,0.4021504521369934,0.531326174736023,-1.2165592977453343e-07,0.014940642991291794,-0.06328075884950926,-2.8240333093316333e-07,0.1833533379262992,-0.3445636483192288,-7.35165493290178e-07,idle
1765389435.511848,Right,0.6352412700653076,0.5773140788078308,-1.401987077542799e-07,-0.00019737038388539666,-0.018918869297200783,5.311710347536773e-08,0.008919979243187638,-0.16687411404994856,4.3319288409492413e-07,idle
1765389435.601788,Left,0.4021504521369934,0.531326174736023,-1.2165592977453343e-07,0.014940642991291794,-0.06328075884950926,-2.8240333093316333e-07,0.1833533379262992,-0.3445636483192288,-7.35165493290178e-07,idle
1765389435.601788,Right,0.6352600455284119,0.5784486532211304,-1.6460306540011516e-07,0.00020875526195803158,0.012614782258321052,-2.7134020849377426e-07,0.00451551395111727,0.35060736741438103,-3.6074833828728436e-06,idle
1765389435.7225342,Left,0.4021504521369934,0.531326174736023,-1.2165592977453343e-07,0.014940642991291794,-0.06328075884950926,-2.8240333093316333e-07,0.1833533379262992,-0.3445636483192288,-7.35165493290178e-07,idle
1765389435.7225342,Right,0.634770393371582,0.573586642742157,-1.2388805714635964e-07,-0.004055220102439352,-0.04026638575484849,3.371951244135797e-07,-0.03531355549613069,-0.43795329516337195,5.039791371547305e-06,idle
1765389435.82427,Left,0.4021504521369934,0.531326174736023,-1.2165592977453343e-07,0.014940642991291794,-0.06328075884950926,-2.8240333093316333e-07,0.1833533379262992,-0.3445636483192288,-7.35165493290178e-07,idle
1765389435.82427,Right,0.6369887590408325,0.5734171271324158,-1.6406342240316008e-07,0.02180515618299036,-0.0016662331179650865,-3.948988781588923e-07,0.25419143095791524,0.3794155168380722,-7.1960291704824335e-06,idle
1765389435.9089358,Left,0.4021504521369934,0.531326174736023,-1.2165592977453343e-07,0.014940642991291794,-0.06328075884950926,-2.8240333093316333e-07,0.1833533379262992,-0.3445636483192288,-7.35165493290178e-07,idle
1765389435.9089358,Right,0.6369638442993164,0.5713005065917969,-1.4516747626203141e-07,-0.0002942716986657806,-0.02499971840028836,2.2318281589439028e-07,-0.26101961274898167,-0.2755952473109752,7.300254345631147e-06,idle
1765389436.0290108,Left,0.4021504521369934,0.531326174736023,-1.2165592977453343e-07,0.014940642991291794,-0.06328075884950926,-2.8240333093316333e-07,0.1833533379262992,-0.3445636483192288,-7.35165493290178e-07,idle
1765389436.0290108,Right,0.6370477080345154,0.5716496706008911,-1.6001948210941919e-07,0.0006984280157496262,0.002907882953988138,-1.2368942248138403e-07,0.00826733140527767,0.23241810768329854,-2.8887967915169316e-06,idle
1765389436.122625,Left,0.4021504521369934,0.531326174736023,-1.2165592977453343e-07,0.014940642991291794,-0.06328075884950926,-2.8240333093316333e-07,0.1833533379262992,-0.3445636483192288,-7.35165493290178e-07,idle
1765389436.122625,Right,0.6380414366722107,0.5739014744758606,-1.6235648558904359e-07,0.01061513267642437,0.024054048547423004,-2.4964161301633627e-08,0.10593147031579694,0.22588596610493963,1.0545954963803921e-06,idle
1765389436.237535,Left,0.47705569863319397,0.43697160482406616,4.0084805164042336e-07,0.04136679315996102,-0.05210777829084346,2.885554101413308e-07,0.014593972240607444,0.006170333819995342,3.153147910153177e-07,idle
1765389436.237535,Right,0.6376609206199646,0.5775830149650574,-1.761833345881314e-07,-0.0033114300356663425,0.032038500561241745,-1.203277570129698e-07,-0.12119551274168755,0.06948446474420032,-8.298989577013367e-07,idle
1765389436.3073597,Left,0.4495629370212555,0.4456004500389099,1.6595704721567017e-07,-0.39373979908900314,0.12357870152219787,-3.3640104328353583e-06,-6.231414094829032,2.5161080665756987,-5.2310515817679415e-05,firing
1765389436.3073597,Right,0.6364271640777588,0.5770333409309387,-1.7388290984854393e-07,-0.01766934365887471,-0.007872200938313085,3.2945718133722195e-08,-0.20562801602602332,-0.5715843250578381,2.195118415595087e-06,idle
