time,hand,pos_x,pos_y,pos_z,vel_x,vel_y,vel_z,acc_x,acc_y,acc_z,state
1765388242.0901508,Left,0.37632977962493896,0.5520994663238525,-1.0338084166505723e-07,1.4958406203772354,-0.7082705139893506,-1.965477185506225e-06,44.395892366980405,-25.864339118011657,-8.553577110240246e-05,retracting
1765388242.0901508,Right,0.7262374758720398,0.5937129259109497,-2.0473902395679033e-07,0.03451543340277286,0.12092002080743597,7.46453962046587e-07,-1.1031400491487038,-0.23564712515530029,1.2716227494222467e-05,idle
1765388242.1231678,Left,0.34103482961654663,0.587997555732727,-2.529258722461236e-07,-0.17127397658078541,0.17420079992317775,-7.256894275080195e-07,-8.089920693158094,4.28232285684866,6.016253865724096e-06,retracting
1765388242.1231678,Right,0.7262374758720398,0.5937129259109497,-2.0473902395679033e-07,0.03451543340277286,0.12092002080743597,7.46453962046587e-07,-1.1031400491487038,-0.23564712515530029,1.2716227494222467e-05,idle
1765388242.217136,Left,0.33521607518196106,0.5883411169052124,-1.0470613176494226e-07,-0.061922622173845754,0.003656144784348351,1.577340149288386e-06,1.1637065422269364,-1.814919732848755,2.4508618114473288e-05,retracting
1765388242.217136,Right,0.6874228715896606,0.591778576374054,-1.4540884762936912e-07,-0.06569975580552095,-0.0032741875014881293,1.0042555292466699e-07,-0.16962979735898023,-0.21021801739868656,-1.0935035795793953e-06,idle
1765388242.3152087,Left,0.3403273820877075,0.5837314128875732,-5.279131798374692e-08,0.052386208969374716,-0.04724523931120598,5.320792379519025e-07,1.171560703698185,-0.5216925129387614,-1.0712965888866984e-05,idle
1765388242.3152087,Right,0.7074786424636841,0.5948450565338135,-2.649221642059274e-07,0.20555326131312662,0.03142860982755714,-1.2249019071352902e-06,2.7800946999240344,0.3556718518814376,-1.358339120616982e-05,idle
1765388242.4114244,Left,0.343375563621521,0.5736172795295715,-4.19300594245442e-09,0.03151591942179319,-0.10457258151986354,5.024702332647419e-07,-0.21578319939107693,-0.5927218827591558,-3.0613498426145644e-07,idle
1765388242.4114244,Right,0.7169830799102783,0.5988251566886902,-2.3755026745675423e-07,0.09826878136801523,0.04115126162280486,2.8300495977657603e-07,-1.1092413583809926,0.10052495468071107,1.5590630277753997e-05,idle
1765388242.507915,Left,0.34374043345451355,0.5683450102806091,-4.987262158806516e-09,0.003781402037503305,-0.054640224752971873,-8.231434345175846e-09,-0.2874322595704011,0.5174840409991346,-5.2927596414798425e-06,idle
1765388242.507915,Right,0.7234898805618286,0.6037756204605103,-2.3699519147157844e-07,0.06743453970858217,0.051305128845027685,5.752641823243642e-09,-0.31955687670739547,0.10523164901778824,-2.8733602649815144e-06,idle
1765388242.6076303,Left,0.3450625538825989,0.5666303038597107,-1.3198282466930777e-08,0.013258961447603745,-0.017196032861829205,-8.234469371944744e-08,0.0950462546122809,0.3755112516038487,-7.432491230944847e-07,idle
1765388242.6076303,Right,0.7245308756828308,0.6111970543861389,-2.3165208062891907e-07,0.010439679989288344,0.07442628085578477,5.3583697194429866e-08,-0.5715762586197098,0.23187181486846303,4.796765148566548e-07,idle
1765388242.697764,Left,0.347066193819046,0.5666832327842712,-2.6302796385380134e-08,0.022229650732182155,0.0005872270187912646,-1.453897789333836e-07,0.0995265097264484,0.1972987505563472,-6.99462113523027e-07,idle
1765388242.697764,Right,0.725492000579834,0.611274242401123,-1.7695347764856706e-07,0.01066332846622651,0.0008563727357372609,6.068609522465463e-07,0.002481297881262848,-0.8162311661681791,6.138408360774589e-06,idle
1765388242.8218353,Left,0.3505536615848541,0.5589281916618347,-6.354875381475722e-08,0.028108564104436455,-0.06250468396000715,-3.001978662854151e-07,0.04738332351299825,-0.5085130941154438,-1.247734270086214e-06,idle
1765388242.8218353,Right,0.7234598398208618,0.6099467873573303,-1.7140543207005976e-07,-0.016378967434227593,-0.010699125468636203,4.471656951979653e-08,-0.21795760101396106,-0.09313590371237974,-4.530815043723373e-06,idle
1765388242.9156077,Left,0.35375940799713135,0.5485225319862366,-6.419976017468798e-08,0.03418645597620198,-0.11096717601891638,-6.942408226292319e-09,0.0648153522394895,-0.5168097030145464,3.1273106220518447e-06,idle
1765388242.9156077,Right,0.721636176109314,0.6057105660438538,-1.69574562391972e-07,-0.019447763850397905,-0.04517556126210877,1.9524609123292636e-08,-0.03272600514486996,-0.36766075755588506,-2.6865002226970555e-07,idle
1765388242.999934,Left,0.35375940799713135,0.5485225319862366,-6.419976017468798e-08,0.03418645597620198,-0.11096717601891638,-6.942408226292319e-09,0.0648153522394895,-0.5168097030145464,3.1273106220518447e-06,idle
1765388242.999934,Right,0.7184043526649475,0.5940267443656921,-1.6199570040953404e-07,-0.03832522830727473,-0.13855494924934264,8.987545909804476e-08,-0.22386220894381037,-1.1073582531380786,8.342697035610358e-07,idle
1765388243.1163275,Left,0.35375940799713135,0.5485225319862366,-6.419976017468798e-08,0.03418645597620198,-0.11096717601891638,-6.942408226292319e-09,0.0648153522394895,-0.5168097030145464,3.1273106220518447e-06,idle
1765388243.1163275,Right,0.7165442705154419,0.5874389410018921,-1.7144597563856223e-07,-0.01605704735972273,-0.0568688165935,-8.157893292790946e-08,0.19222873365284043,0.7051506305977262,-1.4800697342990671e-06,idle
1765388243.208982,Left,0.35375940799713135,0.5485225319862366,-6.419976017468798e-08,0.03418645597620198,-0.11096717601891638,-6.942408226292319e-09,0.0648153522394895,-0.5168097030145464,3.1273106220518447e-06,idle
1765388243.2099912,Right,0.7108428478240967,0.5891209840774536,-2.0033736802815838e-07,-0.061170171947182904,0.018046524477277493,-3.099737619783715e-07,-0.48401561109978297,0.8037615421388938,-2.4504324133118864e-06,idle
1765388243.3270965,Left,0.39632880687713623,0.5707032084465027,-1.3030764023369557e-07,0.10359536832406646,0.05397810182979862,-1.6087777520985548e-07,0.16891104945875243,0.40140493550824485,-3.7461160975549897e-07,idle
1765388243.3270965,Right,0.7179388999938965,0.6022244691848755,-1.8697362236252957e-07,0.06036850282543173,0.11147575564579268,1.136898797626264e-07,1.0339703902736117,0.7948338978930513,3.6042491150675514e-06,idle
1765388243.4047654,Left,0.4125610589981079,0.5810621380805969,-7.636348442474628e-08,0.20747334322709224,0.1324031777859718,6.894899284361235e-07,1.3277215373550162,1.0023940350485323,1.0869017381749196e-05,idle
1765388243.4047654,Right,0.7227375507354736,0.6064446568489075,-1.6575022243614512e-07,0.061334194720145785,0.05394053993106874,2.7126794880691015e-07,0.012343039304125667,-0.7353892404248308,2.0140919793654652e-06,idle
1765388243.508928,Left,0.4064876437187195,0.5293419361114502,-1.0374645853516995e-07,-0.05830701091808006,-0.49653288013000985,-2.628865797872381e-07,-2.551588735179365,-6.038016488043291,-9.143163262943255e-06,idle
1765388243.508928,Right,0.7195495367050171,0.6030139327049255,-1.4426878180984204e-07,-0.03060610222252741,-0.032936208198860124,2.0622969705112392e-07,-0.8826605214764401,-0.8340485984763971,-6.243910354833052e-07,idle
1765388243.5982156,Left,0.4064876437187195,0.5293419361114502,-1.0374645853516995e-07,-0.05830701091808006,-0.49653288013000985,-2.628865797872381e-07,-2.551588735179365,-6.038016488043291,-9.143163262943255e-06,idle
1765388243.5982156,Right,0.7114102840423584,0.6030068397521973,-1.4083528299124737e-07,-0.09115778680316904,-7.943946445784902e-05,3.845440930103126e-08,-0.6781651562309206,0.36798836987489525,-1.8790452324608735e-06,idle
1765388243.7259293,Left,0.4064876437187195,0.5293419361114502,-1.0374645853516995e-07,-0.05830701091808006,-0.49653288013000985,-2.628865797872381e-07,-2.551588735179365,-6.038016488043291,-9.143163262943255e-06,idle
1765388243.7259293,Right,0.7121517658233643,0.6008473634719849,-1.5465739977571502e-07,0.005805813280564526,-0.016908731121772734,-1.0822737826938192e-07,0.759226418663737,-0.13177360187324744,-1.1485205599225909e-06,idle
1765388243.8216095,Left,0.4152008295059204,0.5861061215400696,-3.7660139895479006e-08,0.02786601559610852,0.1815399918107849,2.1135350845016457e-07,0.27559367600488854,2.1685741227457833,1.516687698147736e-06,idle
1765388243.8216095,Right,0.7080310583114624,0.6099172830581665,-1.164489091820542e-07,-0.04306748863726975,0.09479407543258113,3.993352427312265e-07,-0.5107982959073737,1.1674595535198364,5.304780149891695e-06,idle
1765388243.9003623,Left,0.40231168270111084,0.5916801691055298,-6.415695708028579e-08,-0.16366597742141545,0.07077907923696615,-3.3645574441667097e-07,-2.4320671739876203,-1.406438555709337,-6.9560645222452025e-06,idle
1765388243.9003623,Right,0.7078855633735657,0.6262590289115906,1.727754650460156e-08,-0.0018474901078673865,0.20750697066116078,1.6980542939344287e-06,0.5234102342683045,1.4312247695634521,1.6491093330682706e-05,idle
1765388244.0046673,Left,0.39815086126327515,0.593589186668396,-8.724663302928093e-08,-0.0400894744096297,0.01839336579987136,-2.2246880499764333e-07,1.1906584142431889,-0.5047358435451172,1.0982630615477932e-06,idle
1765388244.0046673,Right,0.7078855633735657,0.6262590289115906,1.727754650460156e-08,-0.0018474901078673865,0.20750697066116078,1.6980542939344287e-06,0.5234102342683045,1.4312247695634521,1.6491093330682706e-05,idle
1765388244.120725,Left,0.4118448495864868,0.6002628803253174,-6.72664413059465e-08,0.11747005816569452,0.05724841905478701,1.7139450016351123e-07,1.3515804906018893,0.3333072336676001,3.378646474248082e-06,idle
1765388244.1212301,Right,0.7078855633735657,0.6262590289115906,1.727754650460156e-08,-0.0018474901078673865,0.20750697066116078,1.6980542939344287e-06,0.5234102342683045,1.4312247695634521,1.6491093330682706e-05,idle
1765388244.2195325,Left,0.4173044264316559,0.6102681159973145,-8.142161078694699e-08,0.05556907086904612,0.10183603343007737,-1.4407519819948907e-07,-0.6300452301527881,0.45382497093975466,-3.210937133503668e-06,idle
1765388244.2195325,Right,0.769834041595459,0.5037798285484314,-4.946741114508768e-07,0.19443286649026603,-0.3844159323292067,-1.606822818216529e-06,0.6160498766799297,-1.8578223400003218,-1.0372760538393485e-05,firing
1765388244.2982545,Left,0.4046064615249634,0.6130362749099731,-1.4664121295027144e-07,-0.16016385037094508,0.03491575170887351,-8.226375390779162e-07,-2.7211144125432067,-0.8440888021928079,-8.558942951128323e-06,idle
